TimeStamp,AccX,AccY,AccZ
78592468,215,693,1848
78592488,247,706,1922
78592508,200,656,1961
78592528,76,552,1839
78592548,126,527,1858
78592569,218,487,1967
78592589,183,398,1971
78592609,125,325,2046
78592629,119,341,2115
78592649,161,395,2069
78592669,232,473,2017
78592689,243,493,1947
78592710,218,464,1868
78592730,197,399,1952
78592750,159,388,2102
78592770,145,357,2121
78592790,150,342,2029
78592810,188,404,1959
78592830,243,490,1899
78592850,262,497,1810
78592871,254,473,1777
78592891,239,476,1850
78592911,182,443,1846
78592931,122,404,1847
78592951,83,371,1863
78592971,84,391,1913
78592991,90,413,1953
78593012,122,440,1940
78593032,168,461,1909
78593052,157,486,1876
78593072,132,503,1899
78593092,116,496,1970
78593112,118,470,1996
78593132,111,448,1940
78593153,99,466,1897
78593173,113,493,1890
78593193,143,495,1904
78593213,142,475,1864
78593233,138,475,1860
78593253,149,483,1897
78593273,148,479,1925
78593294,148,455,1926
78593314,153,447,1907
78593334,165,457,1883
78593354,169,480,1879
78593374,175,506,1893
78593394,164,503,1888
78593414,156,476,1876
78593435,136,462,1911
78593455,123,464,1907
78593475,123,476,1888
78593495,138,481,1911
78593515,128,461,1931
78593535,115,438,1961
78593555,126,447,1963
78593576,146,465,1941
78593596,162,465,1888
78593616,136,446,1828
78593636,124,443,1894
78593656,148,467,1945
78593676,159,472,1935
78593696,152,465,1919
78593717,144,440,1923
78593737,154,447,1916
78593757,158,457,1920
78593777,171,444,1896
78593797,181,453,1931
78593817,189,447,1952
78593837,153,430,1915
78593858,160,425,1885
78593878,171,456,1892
78593898,191,477,1865
78593918,210,485,1909
78593938,188,451,1880
78593958,162,437,1860
78593978,168,452,1873
78593999,179,481,1868
78594019,200,503,1841
78594039,216,529,1872
78594059,224,530,1873
78594079,202,511,1882
78594099,192,506,1857
78594119,217,550,1836
78594140,263,594,1832
78594160,267,584,1819
78594180,246,555,1846
78594200,231,546,1875
78594220,233,566,1856
78594240,223,580,1822
78594260,203,573,1805
78594281,193,568,1802
78594301,190,581,1777
78594321,167,605,1754
78594341,130,591,1742
78594361,100,569,1767
78594381,83,563,1812
78594401,80,556,1822
78594422,89,575,1827
78594442,115,616,1820
78594462,137,620,1888
78594482,140,588,1995
78594502,166,565,2003
78594522,160,551,1987
78594542,152,562,2031
78594563,191,564,2127
78594583,27,597,2075
78594603,-35,671,1964
78594623,203,629,1953
78594643,224,330,2647
78594663,6,24,3363
78594683,46,-209,3406
78594704,44,-327,2911
78594724,-94,-169,2440
78594744,-111,14,2086
78594764,-118,90,1721
78594784,-203,71,1325
78594804,-256,45,1025
78594824,-168,124,1201
78594845,16,238,1723
78594865,60,213,2078
78594885,-19,170,2277
78594905,-145,89,2362
78594925,-210,59,2343
78594945,-216,24,1965
78594965,-180,104,1309
78594986,-119,309,1014
78595006,-135,447,1225
78595026,-109,547,1430
78595046,-39,557,1547
78595066,-78,536,1645
78595086,-112,504,1660
78595106,-73,504,1593
78595126,-49,592,1687
78595147,-58,655,1943
78595167,-79,605,2151
78595187,-42,487,2188
78595207,64,355,2230
78595227,229,290,2388
78595247,214,280,2729
78595267,38,302,2829
78595288,35,313,2452
78595308,228,396,2181
78595328,343,398,2523
78595348,267,192,2789
78595368,83,-79,2551
78595388,-77,-229,2235
78595408,-21,-156,1986
78595429,140,29,1859
78595449,312,168,2252
78595469,368,257,2106
78595489,353,385,1474
78595509,155,424,1325
78595529,33,357,1422
78595549,34,281,1340
78595570,-95,294,1274
78595590,-198,320,1271
78595610,-166,339,1359
78595630,-147,359,1187
78595650,-190,414,1458
78595670,-219,403,1668
78595690,-246,352,1670
78595711,-256,304,1774
78595731,-210,335,1897
78595751,-167,362,1949
78595771,-128,435,2065
78595791,-90,483,2222
78595811,-87,490,2148
78595831,-79,479,2215
78595852,-177,475,2371
78595872,-177,494,2180
78595892,0,446,2130
78595912,72,413,2518
78595932,50,342,3051
78595952,-75,213,3034
78595972,-258,140,2317
78595993,-240,250,1678
78596013,-110,402,1511
78596033,13,449,1697
78596053,46,366,1830
78596073,17,270,1745
78596093,-33,227,1653
78596113,-58,257,1634
78596134,-71,277,1508
78596154,-102,284,1404
78596174,-108,316,1388
78596194,-95,371,1350
78596214,-58,444,1309
78596234,8,475,1383
78596254,64,495,1611
78596275,108,505,1904
78596295,127,472,2123
78596315,100,420,2276
78596335,76,363,2292
78596355,138,275,2283
78596375,207,203,2409
78596395,171,247,2356
78596416,231,314,2260
78596436,443,315,2064
78596456,578,165,2597
78596476,419,-103,3459
78596496,85,-470,3510
78596516,-38,-545,2720
78596536,64,-256,2030
78596557,238,78,1656
78596577,371,339,1498
78596597,395,496,1311
78596617,375,561,1136
78596637,276,552,1060
78596657,223,522,1182
78596677,172,505,1321
78596698,58,458,1377
78596718,-30,375,1421
78596738,-84,334,1589
78596758,-90,273,1676
78596778,-52,265,1842
78596798,-12,274,1971
78596818,-29,237,2041
78596839,-71,261,2039
78596859,-98,356,1998
78596879,-87,387,1839
78596899,-82,378,1886
78596919,-135,370,2293
78596939,-322,396,2602
78596959,-397,488,2262
78596980,-49,637,1922
78597000,289,569,2320
78597020,196,280,3354
78597040,-241,-4,3643
78597060,-495,-144,2711
78597080,-389,17,1847
78597100,-79,308,1741
78597121,129,473,1925
78597141,156,454,1865
78597161,126,371,1556
78597181,94,344,1361
78597201,49,384,1405
78597221,2,433,1508
78597241,-25,442,1473
78597262,-41,470,1293
78597282,-37,529,1122
78597302,24,605,1164
78597322,92,657,1395
78597342,153,633,1678
78597362,138,546,1803
78597382,108,490,1945
78597402,67,428,1896
78597423,11,369,1878
78597443,60,319,2212
78597463,-64,364,2468
78597483,-122,461,2311
78597503,-34,611,2091
78597523,404,638,2097
78597543,503,444,3024
78597564,309,69,3731
78597584,-99,-365,3265
78597604,-191,-354,2266
78597624,-64,-68,1446
78597644,317,323,1249
78597664,599,653,1349
78597684,660,748,1331
78597705,383,607,1115
78597725,85,523,1010
78597745,132,618,1221
78597765,146,625,1258
78597785,114,601,1326
78597805,-90,530,1453
78597825,-292,428,1598
78597846,-421,364,1703
78597866,-395,365,1812
78597886,-260,470,2043
78597906,-206,485,2251
78597926,-218,392,2366
78597946,-190,347,2413
78597966,-150,377,2523
78597987,-239,443,2560
78598007,-253,534,2261
78598027,36,620,2043
78598047,222,514,2486
78598067,-21,177,3279
78598087,-392,-69,3172
78598107,-438,-46,2324
78598128,-145,202,1902
78598148,193,426,2127
78598168,305,429,2227
78598188,234,344,1962
78598208,114,288,1658
78598228,21,273,1443
78598248,-28,311,1310
78598269,-64,337,1188
78598289,-102,366,1045
78598309,-86,455,1038
78598329,-9,567,1179
78598349,83,659,1447
78598369,69,616,1797
78598389,-25,541,2149
78598410,-13,518,2168
78598430,99,555,2075
78598450,269,591,2069
78598470,391,616,2161
78598490,406,593,2214
78598510,160,478,2304
78598530,-135,437,2078
78598551,-148,574,1787
78598571,163,760,1708
78598591,553,657,2121
78598611,507,352,2972
78598631,51,-3,3220
78598651,-190,-189,2517
78598671,-152,11,1718
78598692,115,308,1239
78598712,342,507,1254
78598732,450,622,1582
78598752,347,610,1607
78598772,175,540,1365
78598792,53,516,1186
78598812,28,571,1126
78598833,25,659,1166
78598853,31,704,1305
78598873,-12,677,1490
78598893,-66,598,1658
78598913,-87,554,1818
78598933,-101,543,2067
78598953,-144,518,2346
78598974,-242,454,2441
78598994,-334,426,2248
78599014,-314,458,2022
78599034,-208,491,2133
78599054,-206,542,2344
78599074,-223,607,2141
78599094,35,636,1905
78599115,369,549,2485
78599135,307,424,3413
78599155,-32,219,3272
78599175,-206,165,2185
78599195,-156,343,1494
78599215,14,529,1647
78599235,159,522,2047
78599256,216,398,1865
78599276,166,307,1577
78599296,81,275,1619
78599316,-19,285,1808
78599336,-40,294,1767
78599356,2,328,1443
78599376,45,423,1156
78599397,1,548,1029
78599417,8,668,1056
78599437,89,681,1216
78599457,110,640,1553
78599477,89,626,1731
78599497,89,561,1894
78599517,111,497,2116
78599538,139,467,2193
78599558,141,431,2152
78599578,40,408,2365
78599598,-135,449,2330
78599618,-50,561,2047
78599638,272,675,2125
78599658,494,536,2871
78599678,318,295,3632
78599699,-57,-133,3366
78599719,-343,-279,2497
78599739,-418,-63,1750
78599759,-241,212,1345
78599779,54,457,1352
78599799,331,594,1500
78599819,414,664,1604
78599840,315,668,1589
78599860,129,572,1510
78599880,-7,476,1452
78599900,-56,466,1402
78599920,-56,508,1369
78599940,-40,543,1387
78599960,-52,551,1432
78599981,-132,510,1513
78600001,-225,446,1667
78600021,-284,411,1833
78600041,-300,439,1984
78600061,-300,481,2031
78600081,-337,501,1946
78600101,-400,543,1935
78600122,-440,538,2138
78600142,-478,505,2444
78600162,-486,569,2255
78600182,-288,607,1906
78600202,-81,600,2260
78600222,-98,473,3100
78600242,-402,204,3311
78600263,-571,78,2395
78600283,-463,267,1476
78600303,-214,517,1267
78600323,-19,616,1744
78600343,88,477,2099
78600363,-1,367,1996
78600383,2,369,1791
78600404,58,452,1746
78600424,84,504,1694
78600444,45,525,1513
78600464,-6,513,1345
78600484,-27,539,1269
78600504,-1,601,1312
78600524,30,648,1488
78600545,3,628,1684
78600565,-2,585,1738
78600585,24,590,1840
78600605,79,619,1921
78600625,121,591,1990
78600645,174,458,2233
78600665,158,321,2534
78600686,29,298,2610
78600706,84,409,2221
78600726,255,510,2189
78600746,426,438,2604
78600766,292,205,3141
78600786,-87,-46,3153
78600806,-312,-195,2467
78600827,-266,-10,1779
78600847,-36,294,1366
78600867,189,497,1215
78600887,292,583,1391
78600907,269,607,1573
78600927,195,602,1522
78600947,121,588,1330
78600968,67,613,1236
78600988,21,639,1266
78601008,-13,658,1341
78601028,-60,663,1441
78601048,-139,614,1498
78601068,-211,576,1545
78601088,-222,569,1673
78601109,-212,563,1895
78601129,-291,575,2157
78601149,-391,534,2261
78601169,-395,460,2236
78601189,-295,487,2344
78601209,-365,587,2460
78601229,-370,702,2170
78601250,-31,619,1967
78601270,265,514,2502
78601290,247,388,3649
78601310,-121,-31,3922
78601330,-379,-262,2912
78601350,-308,87,1731
78601370,64,490,1326
78601391,343,622,1502
78601411,329,483,1865
78601431,203,380,1815
78601451,108,357,1436
78601471,123,403,1306
78601491,138,456,1270
78601511,158,520,1193
78601532,126,540,1105
78601552,95,588,1109
78601572,99,616,1275
78601592,152,613,1526
78601612,209,632,1600
78601632,293,671,1588
78601652,353,699,1747
78601673,300,645,1956
78601693,208,547,2081
78601713,192,467,2102
78601733,225,447,2229
78601753,159,442,2333
78601773,90,504,2181
78601793,228,582,2006
78601814,418,537,2259
78601834,412,337,2943
78601854,167,60,3242
78601874,-95,-158,2797
78601894,-155,-96,2138
78601914,-9,151,1813
78601934,182,373,1701
78601954,256,476,1572
78601975,264,522,1450
78601995,190,525,1394
78602015,113,477,1411
78602035,47,464,1443
78602055,15,467,1432
78602075,-2,475,1440
78602095,-17,480,1465
78602116,-62,466,1515
78602136,-91,433,1610
78602156,-135,427,1738
78602176,-159,444,1834
78602196,-137,455,1888
78602216,-160,501,1985
78602236,-178,543,2166
78602257,-80,525,2327
78602277,-40,517,2500
78602297,-123,460,2677
78602317,-156,568,2186
78602337,113,670,2044
78602357,379,619,2561
78602377,352,477,3368
78602398,97,160,3530
78602418,-75,48,2419
78602438,-23,266,1564
78602458,131,425,1491
78602478,200,429,2037
78602498,108,361,1988
78602518,25,373,1564
78602539,24,428,1309
78602559,49,464,1138
78602579,37,502,1129
78602599,-22,523,1258
78602619,-72,528,1324
78602639,-100,557,1315
78602659,-119,588,1326
78602680,-101,611,1425
78602700,-43,640,1596
78602720,4,624,1771
78602740,54,567,1933
78602760,116,517,2075
78602780,138,497,2195
78602800,119,453,2308
78602821,47,360,2422
78602841,-141,292,2452
78602861,-136,373,2267
78602881,185,506,2131
78602901,520,477,2473
78602921,507,328,3061
78602941,176,54,3183
78602962,-130,-144,2547
78602982,-188,-43,1921
78603002,-30,194,1560
78603022,90,344,1439
78603042,167,463,1394
78603062,152,550,1288
78603082,170,602,1164
78603103,153,665,1119
78603123,104,688,1242
78603143,77,664,1457
78603163,66,615,1561
78603183,-7,531,1607
78603203,-83,479,1789
78603223,-87,454,1900
78603244,-36,496,1933
78603264,30,568,1916
78603284,6,639,1851
78603304,-72,629,1802
78603324,-123,603,1949
78603344,-69,614,2209
78603364,-94,630,2514
78603385,-245,695,2467
78603405,-124,745,1933
78603425,142,689,2168
78603445,133,533,2894
78603465,-196,262,3106
78603485,-484,107,2531
78603505,-435,186,1949
78603526,-173,387,1953
78603546,67,522,2157
78603566,133,446,1936
78603586,129,402,1601
78603606,53,448,1503
78603626,-45,464,1649
78603646,-109,411,1732
78603667,-130,400,1581
78603687,-101,442,1405
78603707,-56,512,1287
78603727,-13,606,1308
78603747,0,649,1450
78603767,-11,615,1617
78603787,-15,570,1662
78603808,9,573,1744
78603828,37,584,1928
78603848,85,558,2046
78603868,128,534,2122
78603888,161,463,2269
78603908,66,381,2418
78603928,-9,372,2275
78603949,57,509,2101
78603969,201,619,2214
78603989,325,503,2456
78604009,255,308,2681
78604029,6,118,2801
78604049,-150,24,2488
78604069,-164,107,1993
78604090,-22,238,1663
78604110,103,374,1465
78604130,189,481,1455
78604150,173,506,1492
78604170,127,497,1455
78604190,47,499,1350
78604210,1,534,1370
78604230,13,569,1448
78604251,44,616,1451
78604271,54,646,1471
78604291,12,655,1530
78604311,-25,618,1654
78604331,-61,567,1760
78604351,-158,514,1886
78604371,-286,475,1950
78604392,-323,485,1869
78604412,-239,553,1897
78604432,-143,652,2174
78604452,-79,660,2450
78604472,-119,627,2528
78604492,-175,748,2208
78604512,21,843,1995
78604533,188,762,2376
78604553,59,590,2842
78604573,-223,383,2835
78604593,-404,253,2227
78604613,-394,335,1768
78604633,-231,432,1918
78604653,-96,401,2143
78604674,-77,301,1976
78604694,-74,264,1703
78604714,-14,265,1482
78604734,50,304,1325
78604754,75,397,1327
78604774,48,450,1317
78604794,-16,441,1206
78604815,-40,455,1078
78604835,21,533,1091
78604855,127,614,1307
78604875,168,655,1609
78604895,115,622,1863
78604915,-3,531,2052
78604935,-11,470,2132
78604956,72,447,2183
78604976,107,381,2483
78604996,39,231,2854
78605016,-185,216,2663
78605036,-166,395,2110
78605056,50,525,1990
78605076,362,357,2173
78605097,277,-72,2763
78605117,-2,-244,3501
78605137,-230,-369,3383
78605157,-322,-445,2665
78605177,-231,-324,1865
78605197,-97,-51,1374
78605217,40,238,1278
78605238,164,413,1246
78605258,242,493,1239
78605278,246,593,1280
78605298,186,633,1313
78605318,66,560,1403
78605338,-39,469,1493
78605358,-106,433,1542
78605379,-104,425,1653
78605399,-86,405,1803
78605419,-102,372,1889
78605439,-139,338,1967
78605459,-199,329,2086
78605479,-269,343,2183
78605499,-269,367,2150
78605520,-223,407,2164
78605540,-226,430,2363
78605560,-334,480,2492
78605580,-301,601,2248
78605600,-58,671,2014
78605620,59,555,2345
78605640,-47,322,2944
78605661,-272,104,3144
78605681,-361,103,2542
78605701,-305,210,1877
78605721,-199,297,1723
78605741,-123,326,1928
78605761,-73,337,1879
78605781,-34,338,1630
78605802,-41,335,1487
78605822,-104,343,1541
78605842,-158,347,1579
78605862,-198,362,1489
78605882,-190,394,1292
78605902,-141,448,1159
78605922,-46,553,1149
78605943,14,690,1308
78605963,36,719,1582
78605983,117,637,1577
78606003,121,669,1700
78606023,75,712,1962
78606043,12,660,2034
78606063,73,664,1876
78606084,112,693,1950
78606104,102,549,2208
78606124,-151,448,2380
78606144,-314,573,2242
78606164,-117,699,2063
78606184,77,813,2006
78606204,186,725,2166
78606225,77,416,2463
78606245,-276,233,2661
78606265,-443,41,2513
78606285,-348,75,2137
78606305,-199,287,1738
78606325,-85,437,1683
78606345,-151,436,1843
78606366,-236,402,1784
78606386,-241,426,1575
78606406,-194,474,1441
78606426,-179,521,1392
78606446,-211,545,1404
78606466,-299,536,1465
78606486,-405,489,1448
78606506,-475,464,1404
78606527,-503,478,1519
78606547,-516,470,1732
78606567,-509,410,1935
78606587,-522,369,2133
78606607,-580,397,2180
78606627,-506,576,2213
78606647,-355,637,2382
78606668,-430,639,2339
78606688,-637,477,2381
78606708,-704,510,1967
78606728,-509,780,1660
78606748,-281,774,1841
78606768,-350,489,2555
78606788,-803,111,3154
78606809,-1016,-94,2619
78606829,-759,267,1645
78606849,-528,676,1187
78606869,-335,633,1636
78606889,-353,378,1910
78606909,-475,313,1809
78606929,-500,167,1570
78606950,-596,166,1672
78606970,-527,195,1666
78606990,-444,291,1483
78607010,-374,376,1342
78607030,-315,453,1144
78607050,-281,582,1123
78607070,-200,648,1177
78607091,-275,671,1398
78607111,-357,615,1573
78607131,-427,556,1733
78607151,-505,460,1998
78607171,-573,406,2220
78607191,-539,420,2299
78607211,-440,497,2290
78607232,-391,504,2399
78607252,-583,415,2531
78607272,-722,412,2224
78607292,-371,551,1994
78607312,-66,469,2386
78607332,-264,68,2954
78607352,-767,-378,3064
78607373,-993,-536,2510
78607393,-741,-213,1779
78607413,-280,271,1519
78607433,130,573,1684
78607453,211,553,2068
78607473,-8,368,2195
78607493,-229,235,1936
78607514,-369,217,1570
78607534,-479,260,1358
78607554,-527,252,1079
78607574,-502,293,837
78607594,-458,392,820
78607614,-307,453,924
78607634,-152,610,1072
78607655,-43,729,1357
78607675,-90,632,1767
78607695,-321,408,2158
78607715,-751,191,2447
78607735,-1002,16,2480
78607755,-955,170,2195
78607775,-766,400,2151
78607796,-585,428,2342
78607816,-652,351,2517
78607836,-660,571,2502
78607856,-439,896,1929
78607876,-335,898,1890
78607896,-153,389,2703
78607916,-621,5,3581
78607937,-1037,-249,3191
78607957,-1046,-50,1965
78607977,-759,230,1301
78607997,-456,402,1625
78608017,-422,325,2119
78608037,-511,215,2029
78608057,-563,103,1571
78608078,-487,48,1145
78608098,-459,85,1089
78608118,-345,166,1226
78608138,-265,295,1166
78608158,-261,449,1044
78608178,-223,518,803
78608198,-233,630,867
78608219,-267,614,1199
78608239,-324,546,1642
78608259,-333,489,1928
78608279,-401,455,2319
78608299,-523,406,2588
78608319,-561,359,2505
78608339,-504,426,2306
78608360,-487,420,2355
78608380,-714,275,2518
78608400,-723,338,2241
78608420,-313,548,2145
78608440,-155,477,2568
78608460,-533,28,3063
78608480,-1045,-363,3044
78608501,-1118,-326,2453
78608521,-665,72,1783
78608541,-118,373,1557
78608561,201,435,1750
78608581,89,261,2046
78608601,-217,31,2090
78608621,-326,26,1683
78608642,-317,150,1354
78608662,-247,232,1301
78608682,-232,277,1161
78608702,-206,310,988
78608722,-286,369,1171
78608742,-288,372,1252
78608762,-322,358,1304
78608782,-207,353,1364
78608803,-41,614,1712
78608823,53,610,1875
78608843,-201,547,1985
78608863,-650,300,2096
78608883,-902,161,2129
78608903,-975,139,2113
78608923,-844,183,2133
78608944,-741,139,2262
78608964,-821,125,2499
78608984,-666,408,2214
78609004,-268,646,2155
78609024,-153,493,2664
78609044,-599,79,3363
78609064,-1050,-215,3111
78609085,-1187,-143,2014
78609105,-1016,41,1332
78609125,-544,201,1476
78609145,-148,373,1983
78609165,-100,386,2080
78609185,-288,241,1869
78609205,-419,128,1476
78609226,-446,126,1161
78609246,-435,207,1078
78609266,-382,330,1097
78609286,-279,408,1122
78609306,-165,478,1246
78609326,-74,539,1430
78609346,-51,573,1587
78609367,-60,543,1720
78609387,-125,441,1984
78609407,-296,326,2235
78609427,-369,342,2301
78609447,-379,390,2071
78609467,-415,329,1915
78609487,-526,239,2103
78609508,-872,210,2285
78609528,-765,236,2043
78609548,-429,270,2147
78609568,-166,220,2989
78609588,-518,-145,3614
78609608,-1069,-672,3433
78609628,-1074,-592,2338
78609649,-550,42,1618
78609669,30,545,1555
78609689,361,642,1794
78609709,266,507,2044
78609729,-188,237,1901
78609749,-423,-35,1481
78609769,-563,-12,1221
78609790,-481,170,1225
78609810,-476,223,1306
78609830,-536,298,1313
78609850,-556,323,1206
78609870,-445,367,1160
78609890,-292,458,1235
78609910,-115,586,1449
78609931,28,652,1723
78609951,-13,530,1972
78609971,-291,347,2141
78609991,-549,236,2076
78610011,-534,310,1926
78610031,-359,491,1940
78610051,-341,551,2285
78610072,-595,488,2551
78610092,-704,447,2202
78610112,-418,447,1959
78610132,-270,332,2589
78610152,-454,148,3283
78610172,-736,3,2992
78610192,-914,71,1972
78610213,-926,233,1311
78610233,-765,319,1496
78610253,-604,308,2030
78610273,-597,194,2215
78610293,-678,122,1981
78610313,-729,98,1718
78610333,-736,119,1535
78610354,-614,213,1367
78610374,-450,370,1274
78610394,-266,498,1158
78610414,-163,583,1142
78610434,-123,642,1234
78610454,-167,647,1403
78610474,-194,583,1547
78610495,-222,615,1627
78610515,-288,592,1880
78610535,-399,511,2235
78610555,-535,428,2409
78610575,-593,362,2124
78610595,-429,444,1892
78610615,-372,525,1991
78610636,-604,406,2446
78610656,-694,393,2167
78610676,-333,452,1884
78610696,-119,359,2453
78610716,-121,135,3173
78610736,-468,-184,3490
78610756,-767,-394,2749
78610777,-619,-141,1690
78610797,-307,177,1277
78610817,-12,308,1652
78610837,4,253,2314
78610857,182,291,2319
78610877,33,327,1773
78610897,-156,361,1383
78610918,-425,252,1046
78610938,-531,143,803
78610958,-523,260,789
78610978,-369,423,921
78610998,-200,586,1231
78611018,-79,664,1528
78611038,-131,620,1729
78611059,-349,429,1841
78611079,-597,206,1923
78611099,-747,155,2127
78611119,-768,234,2266
78611139,-686,320,2109
78611159,-584,366,2067
78611179,-548,328,2365
78611199,-659,375,2521
78611220,-703,518,2190
78611240,-547,501,1987
78611260,-338,339,2356
78611280,-388,190,3117
78611300,-728,21,3257
78611320,-877,45,2251
78611340,-744,184,1381
78611361,-501,315,1560
78611381,-458,201,2074
78611401,-448,64,2181
78611421,-358,49,1794
78611441,-257,68,1554
78611461,-319,106,1557
78611481,-309,162,1542
78611502,-170,266,1199
78611522,78,440,1156
78611542,70,585,1234
78611562,-25,587,1113
78611582,-145,462,1376
78611602,-224,448,1664
78611622,-281,430,1663
78611643,-198,384,1861
78611663,-201,413,2119
78611683,-327,360,2291
78611703,-462,196,2177
78611723,-449,136,2108
78611743,-366,150,2185
78611763,-458,220,2299
78611784,-299,344,2289
78611804,106,412,2291
78611824,284,221,2879
78611844,-26,-187,3368
78611864,-538,-464,3101
78611884,-765,-444,2159
78611904,-578,-127,1491
78611925,-179,75,1529
78611945,124,142,2032
78611965,274,225,2270
78611985,229,222,2152
78612005,43,168,1762
78612025,-176,120,1538
78612045,-334,68,1422
78612066,-372,99,1310
78612086,-306,197,1196
78612106,-228,349,1239
78612126,-85,488,1150
78612146,104,603,1199
78612166,119,639,1580
78612186,-2,470,1822
78612207,-165,305,1884
78612227,-311,200,2092
78612247,-390,238,2212
78612267,-371,278,2168
78612287,-354,330,2254
78612307,-401,288,2368
78612327,-732,218,2463
78612348,-698,353,2170
78612368,-294,495,1996
78612388,-252,325,2959
78612408,-594,-178,3951
78612428,-1014,-571,3367
78612448,-735,-195,1887
78612468,-679,282,1121
78612489,-464,241,1310
78612509,-206,169,1785
78612529,16,368,2066
78612549,46,418,1876
78612569,26,422,1685
78612589,-135,334,1364
78612609,-289,161,1198
78612630,-410,80,1054
78612650,-417,102,994
78612670,-302,262,1051
78612690,-113,456,1235
78612710,-77,543,1519
78612730,-180,498,1826
78612750,-248,452,2092
78612771,-193,492,2253
78612791,-131,561,2183
78612811,-129,578,1977
78612831,-90,578,1998
78612851,-34,547,2091
78612871,-145,415,2150
78612891,-226,374,2201
78612912,-152,377,2154
78612932,-174,123,2507
78612952,-427,-250,3341
78612972,-763,-515,3660
78612992,-863,-493,2926
78613012,-627,-185,1913
78613032,-219,186,1533
78613053,114,422,1674
78613073,101,307,1973
78613093,-75,126,2046
78613113,-147,48,1792
78613133,-148,79,1453
78613153,-188,138,1418
78613173,-292,183,1485
78613194,-244,217,1225
78613214,-251,348,1115
78613234,-229,461,1106
78613254,-205,556,1151
78613274,-184,599,1379
78613294,-190,529,1663
78613314,-240,465,1968
78613335,-406,333,2092
78613355,-566,186,2174
78613375,-596,215,2075
78613395,-443,343,1878
78613415,-349,444,2070
78613435,-442,412,2531
78613455,-688,406,2489
78613475,-550,546,1974
78613496,-312,593,2191
78613516,-230,335,3064
78613536,-532,31,3553
78613556,-759,-123,2820
78613576,-807,-24,1506
78613596,-676,154,1199
78613616,-397,317,1820
78613637,-234,288,2406
78613657,-189,258,2250
78613677,-186,301,1760
78613697,-217,314,1532
78613717,-328,286,1381
78613737,-405,224,1238
78613757,-380,251,1193
78613778,-272,376,1169
78613798,-159,508,1152
78613818,-97,603,1210
78613838,-116,617,1373
78613858,-172,551,1583
78613878,-207,489,1753
78613898,-241,475,1968
78613919,-342,447,2180
78613939,-464,359,2184
78613959,-499,327,2066
78613979,-375,357,2090
78613999,-330,363,2311
78614019,-431,378,2330
78614039,-238,398,2143
78614060,-90,361,2467
78614080,-238,152,3054
78614100,-516,-107,3201
78614120,-659,-163,2590
78614140,-654,8,1809
78614160,-459,181,1485
78614180,-133,309,1729
78614201,40,254,2270
78614221,-5,168,2497
78614241,-127,64,2059
78614261,-202,109,1465
78614281,-205,170,1389
78614301,-299,241,1480
78614321,-293,243,1305
78614342,-268,308,1152
78614362,-202,455,1061
78614382,-95,572,1042
78614402,-27,632,1174
78614422,-15,644,1488
78614442,-63,548,1721
78614462,-141,417,1875
78614483,-253,333,2096
78614503,-429,319,2286
78614523,-500,315,2301
78614543,-503,295,2302
78614563,-547,274,2500
78614583,-646,279,2561
78614603,-576,464,2089
78614624,-231,601,1937
78614644,-113,447,2609
78614664,-453,42,3454
78614684,-797,-128,3048
78614704,-741,33,1852
78614724,-466,340,1279
78614744,-251,475,1664
78614765,-192,324,2155
78614785,-240,179,1986
78614805,-300,142,1710
78614825,-327,127,1717
78614845,-392,168,1730
78614865,-436,216,1603
78614885,-407,241,1317
78614906,-314,334,1114
78614926,-224,447,1154
78614946,-150,512,1351
78614966,-133,538,1564
78614986,-136,542,1713
78615006,-105,536,1824
78615026,-79,513,2031
78615047,-105,455,2162
78615067,-203,380,2120
78615087,-265,346,2033
78615107,-165,361,1991
78615127,-188,329,2144
78615147,-287,308,2036
78615167,-18,294,2069
78615188,194,249,2550
78615208,186,43,3198
78615228,-360,-305,3410
78615248,-701,-430,2715
78615268,-671,-125,1932
78615288,-160,94,1604
78615308,94,258,1948
78615329,147,162,2305
78615349,-55,90,2040
78615369,-206,24,1692
78615389,-239,3,1418
78615409,-253,123,1382
78615429,-217,213,1326
78615449,-215,275,1250
78615470,-164,391,1188
78615490,-104,499,1161
78615510,-42,565,1199
78615530,-12,587,1356
78615550,-5,522,1652
78615570,-41,428,1981
78615590,-174,335,2269
78615611,-353,212,2363
78615631,-471,194,2263
78615651,-422,262,2113
78615671,-331,292,2136
78615691,-332,271,2277
78615711,-450,303,2215
78615731,-460,455,1812
78615751,-117,556,1764
78615772,117,371,2483
78615792,-213,-8,3345
78615812,-565,-292,3183
78615832,-640,-115,1999
78615852,-333,230,1329
78615872,-180,240,1833
78615892,-295,19,2346
78615913,-439,-141,2199
78615933,-384,-49,1865
78615953,-343,95,1922
78615973,-399,69,2049
78615993,-449,106,1708
78616013,-483,228,1338
78616033,-333,349,1083
78616054,-165,497,1008
78616074,-63,602,1150
78616094,-88,535,1346
78616114,-146,462,1593
78616134,-106,432,1824
78616154,-29,421,2190
78616174,-83,362,2345
78616195,-183,335,2171
78616215,-118,364,2041
78616235,-68,368,2170
78616255,-260,286,2335
78616275,-148,213,2294
78616295,19,107,2610
78616315,-136,-139,3131
78616336,-565,-411,3202
78616356,-809,-508,2652
78616376,-704,-257,2094
78616396,-351,33,1706
78616416,33,251,1670
78616436,254,272,1992
78616456,212,222,2215
78616477,34,117,2105
78616497,-134,13,1851
78616517,-205,20,1674
78616537,-214,95,1442
78616557,-217,214,1197
78616577,-193,313,1072
78616597,-133,412,1110
78616618,-60,508,1213
78616638,10,567,1267
78616658,62,599,1404
78616678,67,557,1684
78616698,20,430,1990
78616718,-92,334,2221
78616738,-226,306,2195
78616759,-290,325,2014
78616779,-377,342,2062
78616799,-470,231,2276
78616819,-604,177,2465
78616839,-695,302,2299
78616859,-473,510,1871
78616879,-207,476,2282
78616900,-195,266,3040
78616920,-554,-51,3284
78616940,-793,-216,2542
78616960,-776,99,1460
78616980,-472,353,1251
78617000,-334,403,1906
78617020,-304,233,2336
78617041,-360,139,2132
78617061,-403,200,1757
78617081,-415,213,1599
78617101,-479,170,1536
78617121,-463,157,1453
78617141,-341,213,1280
78617161,-195,344,1281
78617182,-72,439,1288
78617202,-31,482,1363
78617222,14,487,1453
78617242,32,544,1551
78617262,29,579,1634
78617282,-7,510,1849
78617302,-123,405,2077
78617323,-259,298,2152
78617343,-263,290,2115
78617363,-167,332,2060
78617383,-162,343,2155
78617403,-115,439,2170
78617423,220,502,2304
78617443,372,372,2943
78617464,168,-3,3570
78617484,-374,-367,3517
78617504,-828,-450,2496
78617524,-773,-249,1592
78617544,-328,108,1471
78617564,37,263,1885
78617584,88,170,2328
78617605,-64,58,2261
78617625,-223,86,1788
78617645,-241,138,1434
78617665,-228,227,1199
78617685,-187,312,1062
78617705,-143,403,1037
78617725,-137,508,1092
78617746,-184,541,1099
78617766,-219,600,1212
78617786,-290,582,1606
78617806,-268,477,2275
78617826,-150,418,2074
78617846,-188,443,1988
78617866,-321,315,2100
78617887,-337,319,2045
78617907,-236,392,2212
78617927,-166,378,2498
78617947,-281,396,2661
78617967,-411,532,2092
78617987,-232,596,1837
78618007,-176,341,2653
78618027,-472,65,3442
78618048,-876,-109,3281
78618068,-992,-11,2040
78618088,-830,196,1277
78618108,-612,280,1672
78618128,-487,162,2231
78618148,-377,138,2147
78618168,-284,230,1731
78618189,-178,294,1399
78618209,-176,376,1250
78618229,-269,335,1183
78618249,-300,335,1118
78618269,-194,417,1056
78618289,-78,519,1082
78618309,-37,572,1119
78618330,-19,613,1215
78618350,-33,583,1514
78618370,-89,498,1775
78618390,-132,439,1938
78618410,-220,393,2049
78618430,-342,334,2106
78618450,-368,265,2213
78618471,-280,240,2382
78618491,-294,281,2473
78618511,-209,434,2117
78618531,141,585,2035
78618551,443,497,2703
78618571,293,107,3455
78618591,-227,-257,3281
78618612,-535,-250,2512
78618632,-448,-17,2000
78618652,-10,94,2119
78618672,294,143,2393
78618692,199,122,2513
78618712,19,79,2302
78618732,-188,74,1792
78618753,-372,53,1413
78618773,-402,118,1293
78618793,-328,242,1250
78618813,-180,379,1083
78618833,-160,501,1048
78618853,-154,558,1098
78618873,-78,595,1145
78618894,-11,630,1251
78618914,246,645,1479
78618934,229,579,1717
78618954,40,381,2029
78618974,-297,272,2173
78618994,-439,199,2090
78619014,-450,213,2205
78619035,-458,202,2505
78619055,-597,81,2687
78619075,-702,224,2341
78619095,-411,500,1824
78619115,-232,373,2338
78619135,-414,-106,3305
78619155,-701,-345,3511
78619176,-753,-203,2564
78619196,-578,144,1588
78619216,-268,367,1397
78619236,0,445,1764
78619256,81,390,2071
78619276,-10,307,1898
78619296,-187,180,1806
78619317,-284,41,1761
78619337,-232,115,1474
78619357,-147,301,1254
78619377,-106,349,1176
78619397,-69,368,1140
78619417,69,512,1199
78619437,204,638,1217
78619458,196,656,1233
78619478,53,576,1584
78619498,-224,440,2299
78619518,-326,343,2352
78619538,-429,348,2163
78619558,-475,383,2061
78619578,-282,445,1855
78619599,-254,411,2202
78619619,-338,474,2172
78619639,-1,513,1994
78619659,280,446,2544
78619679,220,157,3389
78619699,-147,-110,3413
78619719,-276,-97,2563
78619740,-296,92,1759
78619760,-26,287,1621
78619780,124,308,1992
78619800,103,153,2249
78619820,38,74,2146
78619840,20,76,1657
78619860,-111,76,1522
78619881,-318,99,1535
78619901,-370,141,1366
78619921,-340,264,1235
78619941,-260,383,1201
78619961,-177,532,1189
78619981,-69,597,1180
78620001,-7,610,1407
78620022,10,559,1750
78620042,-53,460,2127
78620062,-211,327,2208
78620082,-391,259,2185
78620102,-433,270,1994
78620122,-353,339,1965
78620142,-274,383,2232
78620163,-318,336,2480
78620183,-450,398,2535
78620203,-412,448,2528
78620223,-386,197,2674
78620243,-413,-94,3007
78620263,-472,-125,3169
78620283,-546,2,2405
78620304,-427,154,1749
78620324,28,508,1605
78620344,112,530,1701
78620364,-110,149,2060
78620384,-428,-63,2169
78620404,-593,-105,1861
78620424,-647,-83,1536
78620444,-596,6,1356
78620465,-452,90,1185
78620485,-301,227,1083
78620505,-202,381,1094
78620525,-273,348,1367
78620545,-372,302,1542
78620565,-335,341,1367
78620585,-252,359,1386
78620606,-136,478,1736
78620626,-58,562,2043
78620646,-57,513,2079
78620666,-53,485,2040
78620686,-325,334,2620
78620706,-126,166,2573
78620726,-231,206,2562
78620747,-162,485,2199
78620767,235,546,2208
78620787,285,456,2693
78620807,-129,-76,3217
78620827,-776,-379,3007
78620847,-954,-360,2077
78620867,-564,106,1440
78620888,-195,377,1695
78620908,-114,214,2189
78620928,-228,0,2470
78620948,-486,-83,2240
78620968,-519,-29,1814
78620988,-396,128,1381
78621008,-316,264,1150
78621029,-281,339,1008
78621049,-245,452,938
78621069,-219,549,1007
78621089,-160,586,1051
78621109,-80,624,1075
78621129,-44,622,1338
78621149,-54,538,1571
78621170,-180,437,1761
78621190,-401,355,1890
78621210,-552,310,1802
78621230,-558,341,1812
78621250,-516,373,2128
78621270,-594,321,2499
78621290,-645,351,2354
78621311,-456,475,2193
78621331,-376,271,2847
78621351,-646,-35,3466
78621371,-891,-285,3298
78621391,-939,-245,2439
78621411,-756,101,1664
78621431,-309,371,1666
78621452,-78,351,2221
78621472,-23,232,2401
78621492,-84,117,2165
78621512,-148,140,1833
78621532,-250,134,1643
78621552,-294,112,1601
78621572,-308,169,1468
78621593,-330,192,1328
78621613,-144,283,1068
78621633,65,582,1121
78621653,124,647,1226
78621673,91,604,1455
78621693,-15,557,1604
78621713,-86,506,1750
78621734,-170,403,1803
78621754,-288,334,1829
78621774,-336,299,1907
78621794,-298,285,2055
78621814,-239,222,2221
78621834,-324,121,2438
78621854,-471,118,2466
78621875,-146,136,2453
78621895,40,52,2964
78621915,-72,-97,3444
78621935,-299,-242,3248
78621955,-353,-177,2389
78621975,-226,78,1844
78621995,63,147,1857
78622016,203,3,2229
78622036,186,-108,2429
78622056,69,-91,2163
78622076,-81,-79,1783
78622096,-292,-94,1531
78622116,-443,-108,1366
78622136,-370,37,1286
78622157,-215,245,1123
78622177,-47,440,1056
78622197,67,614,1129
78622217,75,672,1206
78622237,15,618,1197
78622257,-89,541,1321
78622277,-107,501,1574
78622298,-66,421,1860
78622318,-102,354,2198
78622338,-350,231,2327
78622358,-503,124,2080
78622378,-608,81,1975
78622398,-614,122,2303
78622418,-724,243,2481
78622439,-555,442,2184
78622459,-102,544,2025
78622479,-11,299,2961
78622499,-271,29,3742
78622519,-706,-219,3378
78622539,-699,-54,2109
78622559,-449,184,1440
78622580,-320,308,1714
78622600,-349,101,2158
78622620,-362,16,2058
78622640,-330,104,1846
78622660,-355,162,1741
78622680,-350,202,1595
78622700,-402,172,1376
78622720,-347,224,1178
78622741,-199,336,1045
78622761,-86,513,1070
78622781,-36,619,1131
78622801,56,653,1221
78622821,56,681,1431
78622841,33,631,1670
78622861,-19,541,1964
78622882,-153,411,2196
78622902,-311,287,2228
78622922,-361,265,2105
78622942,-209,302,2018
78622962,-45,326,2255
78622982,-75,399,2492
78623002,-34,507,2267
78623023,153,554,2287
78623043,191,428,2877
78623063,-36,89,3268
78623083,-466,-209,2823
78623103,-738,-283,2075
78623123,-687,-117,1714
78623143,-344,23,1711
78623164,-11,98,2093
78623184,53,160,2308
78623204,-63,101,1974
78623224,-203,84,1617
78623244,-223,194,1285
78623264,-224,293,1072
78623284,-194,410,886
78623305,-176,506,923
78623325,-165,566,1119
78623345,-107,619,1309
78623365,-46,625,1489
78623385,17,599,1616
78623405,103,550,1886
78623425,88,472,2055
78623446,-116,360,2171
78623466,-340,332,2188
78623486,-363,374,2111
78623506,-221,434,2139
78623526,-236,478,2347
78623546,-420,538,2287
78623566,-314,591,1917
78623587,-32,473,2305
78623607,50,185,3268
78623627,-242,-76,3785
78623647,-531,-186,2903
78623667,-620,18,1807
78623687,-518,222,1426
78623707,-309,245,1766
78623728,-140,196,2132
78623748,-8,237,1958
78623768,71,295,1701
78623788,52,325,1704
78623808,-50,296,1641
78623828,-130,274,1487
78623848,-92,326,1345
78623869,-3,458,1214
78623889,42,570,1221
78623909,3,565,1391
78623929,-124,475,1566
78623949,-240,394,1671
78623969,-222,367,1737
78623989,-135,400,1913
78624010,-80,426,2155
78624030,-93,429,2175
78624050,-95,411,2171
78624070,-80,341,2301
78624090,-100,285,2388
78624110,-346,304,2333
78624130,20,388,1983
78624151,342,361,2037
78624171,252,24,2665
78624191,-230,-271,3466
78624211,-649,-488,3413
78624231,-663,-314,2421
78624251,-300,71,1646
78624271,123,338,1597
78624292,299,342,2167
78624312,67,77,2184
78624332,-287,-106,1841
78624352,-401,-138,1579
78624372,-395,-10,1519
78624392,-309,142,1480
78624412,-209,319,1284
78624433,-197,409,1003
78624453,-211,492,928
78624473,-119,687,1067
78624493,-47,786,1073
78624513,-10,790,1192
78624533,-75,707,1504
78624553,-75,541,1886
78624574,-173,409,2321
78624594,-325,310,2387
78624614,-365,233,2186
78624634,-315,235,2191
78624654,-277,305,2509
78624674,-305,409,2533
78624694,-249,480,2195
78624715,-120,391,2308
78624735,-96,219,2929
78624755,-222,67,3147
78624775,-396,63,2488
78624795,-479,178,1738
78624815,-430,251,1619
78624835,-338,232,2057
78624856,-322,167,2255
78624876,-262,106,1987
78624896,-167,131,1661
78624916,-307,130,1547
78624936,-509,40,1589
78624956,-573,8,1424
78624976,-356,154,1228
78624996,-64,414,1177
78625017,171,630,1151
78625037,228,758,1110
78625057,181,678,1287
78625077,109,571,1654
78625097,65,526,1953
78625117,143,495,2243
78625137,190,513,2349
78625158,39,556,2375
78625178,16,503,2142
78625198,45,497,2054
78625218,-29,410,2284
78625238,-196,410,2114
78625258,57,295,2047
78625278,220,134,2356
78625299,-9,-130,3011
78625319,-420,-378,3326
78625339,-737,-472,2711
78625359,-733,-221,1991
78625379,-398,19,1783
78625399,-59,123,1997
78625419,-14,77,2346
78625440,-149,-7,2266
78625460,-210,-23,1880
78625480,-178,18,1554
78625500,-190,81,1336
78625520,-236,151,1238
78625540,-271,193,1140
78625560,-279,259,1024
78625581,-234,346,1254
78625601,-128,450,1606
78625621,-91,559,1514
78625641,-87,539,1556
78625661,-101,444,1693
78625681,-148,307,1870
78625701,-260,208,1995
78625722,-297,219,2085
78625742,-298,290,2158
78625762,-420,272,2278
78625782,-592,126,2459
78625802,-810,110,2529
78625822,-704,346,2158
78625842,-296,520,2124
78625863,-108,418,2923
78625883,-291,219,3588
78625903,-528,57,2944
78625923,-694,166,1912
78625943,-655,235,1250
78625963,-494,217,1836
78625983,-268,256,2477
78626004,-72,309,2277
78626024,-4,302,1688
78626044,-13,273,1328
78626064,-185,251,1330
78626084,-296,197,1409
78626104,-284,187,1217
78626124,-226,270,1051
78626145,-75,408,987
78626165,61,594,1140
78626185,142,696,1264
78626205,52,685,1550
78626225,-29,671,2002
78626245,-102,548,2065
78626265,-95,484,2019
78626286,-133,567,2100
78626306,-244,573,2136
78626326,-352,437,2049
78626346,-529,273,1950
78626366,-571,351,1976
78626386,-139,470,2085
78626406,111,330,2745
78626427,-110,-130,3658
78626447,-642,-504,3741
78626467,-816,-472,2789
78626487,-462,-104,1850
78626507,70,344,1660
78626527,382,538,1977
78626547,417,406,2245
78626568,232,269,1928
78626588,47,229,1432
78626608,-77,209,1250
78626628,-152,201,1228
78626648,-189,230,1160
78626668,-226,306,1135
78626688,-312,344,1133
78626709,-392,379,1057
78626729,-424,461,1007
78626749,-467,488,1201
78626769,-515,382,1399
78626789,-541,353,1538
78626809,-521,403,1948
78626829,-410,409,2363
78626850,-290,472,2415
78626870,-173,562,2293
78626890,-102,565,2450
78626910,-250,520,2631
78626930,-287,542,2182
78626950,-232,679,2358
78626970,-158,440,2909
78626991,-482,-5,3299
78627011,-890,-263,3284
78627031,-1138,-337,2207
78627051,-1119,-166,1337
78627071,-820,91,1423
78627091,-560,160,2034
78627111,-310,252,2454
78627132,-98,286,2083
78627152,-35,338,1436
78627172,-198,276,1297
78627192,-412,148,1533
78627212,-443,103,1321
78627232,-310,186,1022
78627252,-156,391,1087
78627273,-37,557,1234
78627293,38,655,1370
78627313,117,726,1561
78627333,44,733,1796
78627353,-191,564,1921
78627373,-421,365,2064
78627393,-434,345,2075
78627413,-328,437,1932
78627434,-207,442,1961
78627454,-172,325,2350
78627474,-410,281,2627
78627494,-398,367,2355
78627514,82,521,2314
78627534,487,631,2986
78627554,224,438,3280
78627575,-280,23,2625
78627595,-657,-230,1833
78627615,-526,-192,1686
78627635,-88,-14,2243
78627655,154,48,2692
78627675,31,31,2299
78627695,-172,88,1708
78627716,-294,232,1388
78627736,-352,266,1242
78627756,-366,294,1137
78627776,-324,345,1052
78627796,-265,420,1027
78627816,-216,524,912
78627836,-92,641,826
78627857,74,730,911
78627877,161,798,1256
78627897,167,754,1750
78627917,-24,483,2089
78627937,-404,273,2231
78627957,-648,151,2312
78627977,-657,134,2324
78627998,-610,163,2422
78628018,-487,149,2681
78628038,-510,274,2534
78628058,-89,623,1935
78628078,226,715,2064
78628098,25,350,3348
78628118,-655,-147,3632
78628139,-1036,-386,2401
78628159,-1004,-150,1404
78628179,-603,260,1528
78628199,-183,402,2235
78628219,-77,288,2383
78628239,-107,196,1982
78628259,-101,208,1606
78628280,-67,246,1613
78628300,-78,300,1673
78628320,-95,334,1544
78628340,-139,319,1321
78628360,-192,341,1156
78628380,-193,448,1198
78628400,-164,523,1295
78628421,-189,506,1467
78628441,-245,449,1641
78628461,-262,401,1809
78628481,-304,357,2069
78628501,-307,332,2283
78628521,-234,322,2338
78628541,-111,325,2342
78628562,-89,285,2475
78628582,-323,327,2539
78628602,-75,494,2149
78628622,357,585,2084
78628642,354,394,2803
78628662,-143,-27,3389
78628682,-664,-295,2966
78628703,-693,-244,1939
78628723,-361,62,1417
78628743,-42,196,1962
78628763,40,77,2328
78628783,-65,46,2273
78628803,-19,211,1805
78628823,-158,342,1647
78628844,-312,248,1248
78628864,-308,290,993
78628884,-303,366,1030
78628904,-243,484,1271
78628924,-216,547,1139
78628944,-198,569,1044
78628964,-196,612,1096
78628985,-83,592,1451
78629005,3,563,1746
78629025,48,546,1961
78629045,-112,475,1953
78629065,-304,403,1909
78629085,-417,356,1999
78629105,-372,322,2269
78629126,-296,292,2489
78629146,-105,498,2361
78629166,209,682,2353
78629186,391,481,3115
78629206,99,28,3948
78629226,-487,-376,3489
78629246,-893,-480,2153
78629267,-819,-140,1198
78629287,-419,254,1415
78629307,-63,396,2118
78629327,-71,246,2203
78629347,-258,68,1822
78629367,-392,-13,1519
78629387,-378,47,1461
78629408,-250,124,1481
78629428,-124,221,1447
78629448,-19,328,1227
78629468,116,430,1043
78629488,241,565,1091
78629508,215,661,1365
78629528,69,561,1532
78629549,-33,446,1601
78629569,-18,413,1836
78629589,-7,411,2113
78629609,-56,387,2368
78629629,-223,298,2488
78629649,-283,235,2447
78629669,-312,190,2428
78629689,-562,287,2308
78629710,-301,364,1938
78629730,118,390,2240
78629750,93,70,3133
78629770,-328,-256,3629
78629790,-472,-294,2843
78629810,-321,103,1755
78629830,65,419,1453
78629851,249,426,1925
78629871,138,187,2361
78629891,-89,42,2302
78629911,-229,0,1774
78629931,-222,100,1407
78629951,-239,195,1220
78629971,-265,238,1148
78629992,-284,265,1103
78630012,-270,325,1043
78630032,-202,436,1033
78630052,-96,603,1104
78630072,60,746,1227
78630092,220,772,1366
78630112,167,701,1698
78630133,-36,501,2023
78630153,-300,321,2249
78630173,-488,257,2292
78630193,-495,254,2168
78630213,-403,296,2298
78630233,-514,308,2586
78630253,-596,346,2434
78630274,-245,455,2075
78630294,189,382,2687
78630314,107,198,3698
78630334,-425,-192,3688
78630354,-829,-412,2537
78630374,-864,-143,1443
78630394,-507,258,1398
78630415,-239,351,1962
78630435,-177,242,2290
78630455,-250,89,2082
78630475,-318,86,1753
78630495,-446,61,1492
78630515,-400,21,1325
78630535,-336,138,1149
78630556,-163,277,1036
78630576,-24,511,972
78630596,112,715,969
78630616,126,768,992
78630636,62,634,1330
78630656,-73,520,1627
78630676,-166,431,1758
78630697,-181,385,1971
78630717,-230,414,2111
78630737,-175,413,2088
78630757,-90,412,2192
78630777,-143,329,2471
78630797,-385,316,2851
78630817,-152,290,2841
78630838,21,326,2734
78630858,-62,51,3228
78630878,-461,-295,3344
78630898,-704,-452,2803
78630918,-551,-222,2057
78630938,-247,14,1804
78630958,-6,108,2037
78630979,44,82,2245
78630999,57,85,2007
78631019,78,185,1599
78631039,37,267,1379
78631059,-86,230,1327
78631079,-195,199,1248
78631099,-259,257,1077
78631120,-247,390,908
78631140,-195,560,902
78631160,-122,688,1036
78631180,-86,742,1248
78631200,-97,646,1353
78631220,-110,479,1503
78631240,-93,346,1989
78631261,-158,318,2468
78631281,-227,382,2416
78631301,-203,339,2030
78631321,-180,378,2085
78631341,-189,365,2376
78631361,-198,480,2271
78631381,106,724,1998
78631402,402,583,2659
78631422,141,196,3559
78631442,-313,-256,3742
78631462,-510,-239,2627
78631482,-541,122,1511
78631502,-283,344,1484
78631522,-128,358,2190
78631542,-129,283,2372
78631563,-270,170,2223
78631583,-321,100,1826
78631603,-274,199,1443
78631623,-199,301,1139
78631643,-83,342,955
78631663,-35,486,919
78631683,-67,513,894
78631704,-73,567,947
78631724,-75,640,1123
78631744,-122,596,1519
78631764,-186,492,1754
78631784,-204,395,2049
78631804,-216,288,2339
78631824,-243,256,2469
78631845,-236,269,2384
78631865,-185,321,2333
78631885,-134,303,2433
78631905,-296,287,2513
78631925,-348,404,2142
78631945,70,511,1959
78631965,264,457,2748
78631986,-26,186,3480
78632006,-245,6,3006
78632026,-203,168,1928
78632046,80,465,1399
78632066,435,588,1709
78632086,487,481,2196
78632106,152,251,2280
78632127,-160,104,1891
78632147,-311,122,1391
78632167,-337,202,1094
78632187,-309,280,939
78632207,-293,375,881
78632227,-261,456,911
78632247,-186,550,1061
78632268,-94,673,1272
78632288,-8,717,1377
78632308,33,676,1594
78632328,-30,500,1976
78632348,-212,373,2401
78632368,-366,329,2497
78632388,-378,326,2265
78632409,-310,450,2216
78632429,-241,435,2442
78632449,-530,357,2611
78632469,-483,562,2142
78632489,-11,808,1801
78632509,260,523,2963
78632529,-270,86,3988
78632550,-701,-349,3560
78632570,-737,-110,2141
78632590,-589,313,913
78632610,-348,566,1189
78632630,-322,380,2038
78632650,-387,173,2004
78632670,-410,152,1530
78632691,-400,104,1188
78632711,-387,148,1244
78632731,-346,229,1422
78632751,-290,249,1332
78632771,-245,304,1125
78632791,-196,440,1113
78632811,-114,556,1263
78632832,-73,595,1452
78632852,-69,573,1586
78632872,-24,559,1762
78632892,26,558,2057
78632912,11,528,2304
78632932,-94,448,2360
78632952,-170,340,2283
78632973,-247,233,2339
78632993,-389,257,2384
78633013,-181,395,2153
78633033,162,438,2369
78633053,205,237,3128
78633073,-116,-37,3647
78633093,-462,-262,3063
78633114,-452,-102,1955
78633134,-85,250,1570
78633154,230,375,2012
78633174,185,223,2401
78633194,-49,102,2187
78633214,-195,122,1588
78633234,-239,165,1178
78633255,-259,214,1041
78633275,-276,282,1022
78633295,-210,386,1070
78633315,-130,540,1101
78633335,-69,632,1103
78633355,11,716,1115
78633375,75,748,1204
78633396,32,676,1502
78633416,2,479,1806
78633436,-212,430,2129
78633456,-332,212,2296
78633476,-408,262,2406
78633496,-410,261,2357
78633516,-406,189,2375
78633537,-494,165,2577
78633557,-480,328,2361
78633577,-134,592,2131
78633597,41,456,2520
78633617,-148,200,3280
78633637,-501,-28,3247
78633657,-635,-83,2236
78633678,-525,127,1501
78633698,-220,317,1647
78633718,-91,319,2176
78633738,-118,198,2181
78633758,-157,177,1808
78633778,-93,237,1509
78633798,15,316,1280
78633818,48,388,1305
78633839,15,422,1452
78633859,-4,447,1374
78633879,24,497,1141
78633899,74,547,988
78633919,93,630,1234
78633939,65,628,1567
78633959,31,565,1660
78633980,36,467,1831
78634000,38,420,2160
78634020,10,411,2324
78634040,-29,366,2290
78634060,-83,288,2331
78634080,-286,207,2562
78634100,-359,308,2355
78634121,-14,347,2077
78634141,309,207,2668
78634161,116,-17,3545
78634181,-286,-217,3406
78634201,-366,-247,2360
78634221,-247,77,1768
78634241,121,429,1808
78634262,375,422,2139
78634282,245,219,2321
78634302,37,146,1994
78634322,-18,190,1604
78634342,-63,309,1315
78634362,-115,308,1144
78634382,-171,308,1246
78634403,-181,333,1320
78634423,-174,417,1188
78634443,-132,525,1118
78634463,-82,624,1087
78634483,-62,616,1280
78634503,-99,535,1598
78634523,-62,459,1949
78634544,-120,341,2128
78634564,-194,285,2218
78634584,-232,320,2234
78634604,-171,331,2344
78634624,-95,349,2734
78634644,-216,415,2773
78634664,-248,512,2077
78634685,-27,592,1725
78634705,114,424,2547
78634725,-127,106,3312
78634745,-479,-68,2889
78634765,-534,14,1887
78634785,-357,297,1745
78634805,-114,434,2071
78634826,24,328,2036
78634846,0,283,1764
78634866,41,223,1488
78634886,54,182,1370
78634906,-32,229,1630
78634926,-93,259,1797
78634946,-117,210,1324
78634967,-108,309,1035
78634987,-65,512,1196
78635007,-66,576,1387
78635027,-75,524,1496
78635047,-29,492,1576
78635067,106,474,1911
78635087,164,478,2266
78635108,157,423,2297
78635128,52,357,2109
78635148,-18,317,2003
78635168,-169,326,2201
78635188,-143,358,2014
78635208,172,293,2218
78635228,475,85,2958
78635249,184,-154,3724
78635269,-258,-434,3501
78635289,-475,-420,2451
78635309,-367,-121,1978
78635329,97,124,1935
78635349,411,307,2012
78635369,433,308,2000
78635390,239,196,1902
78635410,14,96,1707
78635430,-104,101,1503
78635450,-152,176,1307
78635470,-171,242,1035
78635490,-182,331,841
78635510,-210,459,846
78635531,-200,573,914
78635551,-139,630,1087
78635571,-46,623,1471
78635591,47,553,1913
78635611,18,470,2257
78635631,-119,418,2308
78635651,-245,367,2217
78635672,-282,327,2356
78635692,-364,385,2499
78635712,-446,475,2342
78635732,-276,399,2360
78635752,-28,229,2887
78635772,-122,85,3431
78635792,-368,-121,3100
78635813,-543,-161,2291
78635833,-543,5,1736
78635853,-370,158,1725
78635873,-195,224,1943
78635893,-96,181,1980
78635913,-121,131,1831
78635933,-148,112,1735
78635954,-120,126,1652
78635974,-138,212,1699
78635994,-114,248,1535
78636014,-70,287,1243
78636034,-14,398,1022
78636054,68,556,965
78636074,133,701,1050
78636095,144,689,1352
78636115,161,551,1672
78636135,201,527,1846
78636155,326,538,2028
78636175,431,566,2303
78636195,427,549,2305
78636215,438,436,2376
78636235,384,311,2624
78636256,80,233,2605
78636276,-19,332,2140
78636296,417,454,2119
78636316,632,452,2542
78636336,340,171,2853
78636356,-179,-73,2577
78636376,-282,-36,2222
78636397,-56,178,1868
78636417,322,307,1716
78636437,431,282,2083
78636457,303,115,2377
78636477,139,22,2186
78636497,23,43,1728
78636517,-14,130,1337
78636538,-42,220,1098
78636558,-55,279,1004
78636578,-49,346,969
78636598,-16,462,1007
78636618,67,549,1072
78636638,149,596,1337
78636658,233,649,1714
78636679,269,599,1858
78636699,179,495,2028
78636719,52,493,2183
78636739,-27,494,2179
78636759,-92,450,2200
78636779,-108,407,2418
78636799,-166,515,2340
78636820,98,568,2114
78636840,319,444,2838
78636860,211,288,3585
78636880,26,-105,3353
78636900,-120,-236,2487
78636920,-149,70,1789
78636940,3,376,1511
78636961,108,508,1649
78636981,70,439,1673
78637001,115,300,1725
78637021,29,267,1653
78637041,-55,233,1655
78637061,-109,208,1730
78637081,-65,236,1742
78637102,-3,313,1636
78637122,14,389,1501
78637142,-36,433,1361
78637162,-23,459,1329
78637182,74,508,1400
78637202,107,519,1495
78637222,136,477,1746
78637243,197,403,2002
78637263,242,363,2071
78637283,210,342,2069
78637303,211,328,2103
78637323,258,289,2214
78637343,166,264,2238
78637363,228,325,2037
78637384,630,412,2164
78637404,884,306,2872
78637424,553,16,3530
78637444,80,-234,3387
78637464,-57,-254,2702
78637484,105,0,2242
78637504,286,176,2120
78637525,337,202,1985
78637545,297,192,1673
78637565,195,233,1476
78637585,110,276,1379
78637605,51,275,1200
78637625,5,275,935
78637645,-67,304,845
78637666,-102,383,997
78637686,-78,448,1093
78637706,5,488,1169
78637726,10,495,1458
78637746,90,398,1792
78637766,286,352,2212
78637786,392,474,2539
78637807,251,492,2473
78637827,146,386,2228
78637847,124,375,2289
78637867,-54,387,2593
78637887,-161,479,2042
78637907,192,486,2103
78637927,573,350,2882
78637948,395,268,3572
78637968,-38,0,3025
78637988,-301,-79,1844
78638008,-243,187,1423
78638028,21,452,1657
78638048,153,471,1895
78638068,35,260,1901
78638089,-121,91,1903
78638109,-124,71,2022
78638129,-78,174,2068
78638149,-80,243,1914
78638169,-65,263,1619
78638189,-46,298,1355
78638209,-18,368,1149
78638230,27,465,1087
78638250,75,540,1182
78638270,116,546,1361
78638290,264,536,1446
78638310,557,669,1515
78638330,744,789,1851
78638350,700,631,2240
78638371,512,382,2319
78638391,407,266,2304
78638411,285,255,2456
78638431,47,316,2356
78638451,175,398,2054
78638471,590,450,2397
78638491,748,386,3059
78638511,511,200,3128
78638532,208,82,2489
78638552,164,204,2011
78638572,440,423,1874
78638592,638,521,1950
78638612,513,407,2096
78638632,272,263,1898
78638652,101,231,1539
78638673,6,265,1226
78638693,-45,292,1104
78638713,-82,378,1103
78638733,-100,429,1167
78638753,-149,461,1139
78638773,-122,560,1054
78638793,31,611,1088
78638814,307,708,1390
78638834,428,726,1751
78638854,341,539,2038
78638874,146,435,2254
78638894,45,460,2227
78638914,112,590,1989
78638934,171,647,2096
78638955,82,602,2481
78638975,-176,635,2390
78638995,-38,588,2138
78639015,129,463,2625
78639035,26,365,2991
78639055,-263,225,2710
78639075,-365,210,2055
78639096,-268,396,1987
78639116,-61,467,2177
78639136,52,367,2183
78639156,104,317,1928
78639176,148,348,1650
78639196,153,350,1513
78639216,107,307,1654
78639237,22,284,1897
78639257,-46,294,1890
78639277,-98,285,1635
78639297,-80,309,1313
78639317,-13,435,1132
78639337,23,514,1161
78639357,105,501,1230
78639378,250,610,1322
78639398,364,643,1660
78639418,360,585,1959
78639438,335,506,1991
78639458,317,441,2082
78639478,263,363,2291
78639498,215,240,2504
78639519,-89,226,2538
78639539,69,331,2182
78639559,551,478,2363
78639579,775,443,2897
78639599,463,226,3045
78639619,-72,15,2632
78639639,-102,28,2227
78639660,118,190,2084
78639680,427,292,2108
78639700,465,220,2223
78639720,326,141,2165
78639740,202,158,1926
78639760,95,199,1706
78639780,10,247,1414
78639801,-58,282,1185
78639821,-91,338,1075
78639841,-137,421,1025
78639861,-184,510,937
78639881,-130,567,957
78639901,-41,611,1199
78639921,96,610,1430
78639942,291,641,1627
78639962,381,672,1919
78639982,211,556,2149
78640002,-2,390,2186
78640022,-55,324,2283
78640042,-29,353,2528
78640062,-120,437,2490
78640083,-108,489,2055
78640103,144,387,2342
78640123,208,202,3404
78640143,-60,-36,3713
78640163,-299,-215,2843
78640183,-300,-37,1910
78640203,-58,296,1873
78640224,99,408,2101
78640244,94,259,1946
78640264,14,145,1633
78640284,29,176,1460
78640304,102,243,1484
78640324,78,264,1796
78640344,-26,214,1872
78640365,-111,163,1598
78640385,-85,164,1251
78640405,6,336,1186
78640425,85,491,1319
78640445,84,395,1396
78640465,294,461,1260
78640485,470,791,1202
78640506,550,697,1694
78640526,490,487,2031
78640546,331,431,2052
78640566,278,325,2146
78640586,268,307,2277
78640606,249,290,2363
78640626,-31,296,2462
78640647,115,453,1960
78640667,621,563,2216
78640687,699,436,2946
78640707,302,154,3153
78640727,-116,-71,2700
78640747,-93,-10,2356
78640767,121,199,2269
78640787,324,258,2071
78640808,299,183,1962
78640828,261,124,2027
78640848,240,194,1900
78640868,172,233,1685
78640888,77,239,1416
78640908,-9,263,1140
78640928,-70,311,1045
78640949,-98,365,1091
78640969,-51,436,1024
78640989,22,522,994
78641009,106,597,1138
78641029,194,580,1506
78641049,248,492,1937
78641069,165,399,2257
78641090,-24,300,2443
78641110,-112,261,2397
78641130,-110,313,2304
78641150,-51,358,2459
78641170,-115,420,2526
78641190,-37,560,2127
78641210,239,548,2326
78641231,342,238,3319
78641251,-61,-59,3788
78641271,-278,-220,2759
78641291,-255,29,1900
78641311,-29,288,1840
78641331,74,394,1964
78641351,16,236,1824
78641372,-32,141,1555
78641392,2,168,1367
78641412,6,226,1473
78641432,-95,202,1562
78641452,-158,149,1595
78641472,-130,166,1357
78641492,-18,324,1298
78641513,91,498,1220
78641533,189,604,1187
78641553,238,670,1246
78641573,230,648,1482
78641593,304,536,1779
78641613,371,474,2048
78641633,339,403,2144
78641654,365,330,2082
78641674,424,324,2155
78641694,339,319,2426
78641714,70,239,2498
78641734,181,272,2043
78641754,610,471,2084
78641774,757,503,2740
78641795,473,266,2994
78641815,162,57,2755
78641835,134,58,2427
78641855,346,227,2340
78641875,498,315,2217
78641895,437,254,2008
78641915,323,176,1848
78641936,242,198,1682
78641956,143,233,1481
78641976,25,217,1286
78641996,-48,212,1132
78642016,-44,269,1000
78642036,-32,380,995
78642056,-50,456,1013
78642077,-36,467,1194
78642097,28,514,1372
78642117,102,550,1485
78642137,147,460,1649
78642157,97,384,1916
78642177,6,384,2236
78642197,-124,333,2471
78642218,-137,302,2495
78642238,-198,334,2576
78642258,-413,502,2247
78642278,-189,641,1927
78642298,212,413,2580
78642318,176,182,3879
78642338,-338,-170,3784
78642359,-453,-257,2426
78642379,-345,169,1742
78642399,84,499,1853
78642419,319,526,2022
78642439,305,416,1876
78642459,213,270,1670
78642479,124,227,1739
78642500,78,194,1928
78642520,-47,182,1817
78642540,-80,148,1533
78642560,-72,205,1327
78642580,-4,343,1070
78642600,75,456,930
78642620,162,551,1091
78642641,212,596,1315
78642661,269,537,1492
78642681,321,447,1665
78642701,342,431,1840
78642721,398,421,1851
78642741,480,423,1897
78642761,478,355,2171
78642782,340,253,2538
78642802,282,296,2413
78642822,561,440,2150
78642842,782,533,2444
78642862,553,350,2901
78642882,137,61,2937
78642902,-17,-18,2679
78642923,96,101,2555
78642943,275,158,2388
78642963,437,191,2123
78642983,511,242,1912
78643003,459,257,1811
78643023,301,243,1750
78643043,115,235,1477
78643063,26,259,1132
78643084,-25,345,844
78643104,-59,467,723
78643124,-86,563,975
78643144,-100,556,1210
78643164,-54,532,1305
78643184,61,544,1400
78643204,227,556,1747
78643225,213,516,2208
78643245,39,436,2206
78643265,-7,389,2075
78643285,114,458,2227
78643305,216,515,2404
78643325,59,568,2358
78643345,-18,618,1896
78643366,258,447,2390
78643386,227,275,3310
78643406,-163,6,3352
78643426,-297,-109,2363
78643446,-73,215,1801
78643466,254,466,2006
78643486,348,466,2210
78643507,179,272,2057
78643527,-10,133,1857
78643547,-5,102,1705
78643567,41,152,1625
78643587,-32,166,1787
78643607,-150,126,1855
78643627,-153,103,1564
78643648,-67,188,1238
78643668,-11,343,1047
78643688,71,486,1142
78643708,168,501,1345
78643728,220,464,1588
78643748,242,392,1837
78643768,286,311,2067
78643789,338,317,2073
78643809,388,350,1927
78643829,441,324,2078
78643849,344,253,2396
78643869,251,204,2329
78643889,492,311,2070
78643909,699,357,2466
78643930,591,143,2995
78643950,263,-116,3167
78643970,99,-219,2776
78643990,142,-30,2376
78644010,294,64,2165
78644030,407,169,1889
78644050,500,255,1881
78644071,484,275,1916
78644091,299,264,1729
78644111,181,259,1547
78644131,162,321,1310
78644151,110,348,1085
78644171,28,391,1071
78644191,-64,481,1118
78644212,-55,507,1088
78644232,-21,517,1307
78644252,14,523,1578
78644272,30,422,1971
78644292,7,283,2420
78644312,-15,251,2307
78644332,71,414,2043
78644353,201,506,2007
78644373,259,614,2130
78644393,201,610,2251
78644413,-49,529,2243
78644433,-161,583,1918
78644453,95,632,2057
78644473,256,556,2786
78644494,-2,344,3139
78644514,-322,132,2419
78644534,-273,269,1709
78644554,-37,540,1742
78644574,117,557,2114
78644594,92,311,2200
78644614,39,183,2005
78644635,61,220,1727
78644655,58,236,1539
78644675,-68,215,1508
78644695,-202,182,1508
78644715,-199,178,1354
78644735,-89,275,1158
78644755,90,450,1145
78644776,204,589,1305
78644796,195,626,1529
78644816,169,464,1695
78644836,206,424,1821
78644856,246,424,2131
78644876,190,422,2363
78644896,193,321,2136
78644917,240,301,2063
78644937,142,400,2179
78644957,199,412,2082
78644977,422,419,2277
78644997,625,263,2934
78645017,223,-21,3660
78645037,-390,-367,3366
78645058,-380,-328,2366
78645078,-14,139,1967
78645098,466,488,1952
78645118,569,436,2224
78645138,370,192,2188
78645158,157,92,1874
78645178,131,167,1618
78645199,130,226,1432
78645219,92,261,1201
78645239,39,287,1037
78645259,-47,342,994
78645279,-98,413,1020
78645299,-101,453,1041
78645319,-86,500,1177
78645339,-75,503,1442
78645360,-35,449,1748
78645380,-49,397,2129
78645400,-151,372,2424
78645420,-252,329,2357
78645440,-266,337,2173
78645460,-198,453,2158
78645480,-180,516,2357
78645501,-261,560,2288
78645521,-145,617,1999
78645541,146,605,2216
78645561,234,602,2896
78645581,20,442,3121
78645601,-215,223,2506
78645621,-249,224,2036
78645642,-103,351,2169
78645662,-67,365,2149
78645682,-81,276,1929
78645702,-36,216,1625
78645722,57,279,1477
78645742,119,384,1557
78645762,85,394,1538
78645783,5,361,1314
78645803,-37,406,1074
78645823,14,515,1052
78645843,94,623,1046
78645863,137,714,1153
78645883,118,702,1427
78645903,89,672,1613
78645924,91,604,1869
78645944,122,545,2179
78645964,173,573,2351
78645984,286,571,2370
78646004,328,494,2360
78646024,188,419,2369
78646044,-42,486,2008
78646065,223,520,1997
78646085,573,508,2445
78646105,526,276,3121
78646125,-25,-16,3192
78646145,-287,-194,2717
78646165,-103,22,2280
78646185,278,324,2052
78646206,567,480,1882
78646226,523,452,1928
78646246,299,357,1954
78646266,145,284,1745
78646286,89,288,1476
78646306,70,332,1331
78646326,53,364,1226
78646347,27,426,1120
78646367,14,476,1083
78646387,9,510,1166
78646407,21,523,1275
78646427,66,536,1455
78646447,123,528,1674
78646467,102,500,1902
78646488,-14,498,2068
78646508,-86,503,1946
78646528,-58,555,1918
78646548,-51,579,2154
78646568,-122,548,2412
78646588,-247,583,2233
78646608,-72,600,2013
78646629,217,541,2651
78646649,212,433,3518
78646669,-38,187,3570
78646689,-244,39,2449
78646709,-167,303,1695
78646729,75,589,1752
78646749,149,625,1974
78646770,42,378,1875
78646790,33,282,1734
78646810,89,336,1642
78646830,138,349,1659
78646850,54,352,1702
78646870,-37,310,1514
78646890,-39,338,1279
78646911,13,390,1153
78646931,40,484,1142
78646951,103,539,1170
78646971,163,560,1336
78646991,42,560,1593
78647011,-30,503,1692
78647031,8,500,1841
78647052,66,589,1975
78647072,97,615,2049
78647092,163,556,2157
78647112,202,510,2349
78647132,149,521,2356
78647152,268,581,2102
78647172,561,577,2302
78647193,576,496,2707
78647213,120,225,2848
78647233,-343,63,2501
78647253,-342,199,2074
78647273,-15,417,1831
78647293,424,492,2078
78647313,490,433,2526
78647334,268,279,2356
78647354,111,163,1853
78647374,147,218,1719
78647394,207,337,1743
78647414,148,368,1583
78647434,38,337,1312
78647454,13,368,1000
78647475,90,493,870
78647495,169,625,951
78647515,163,683,1152
78647535,120,613,1460
78647555,132,554,1829
78647575,141,550,2116
78647595,150,594,2091
78647615,117,631,1973
78647636,146,646,2075
78647656,136,614,2236
78647676,147,555,2505
78647696,64,642,2442
78647716,270,803,2176
78647736,263,773,2470
78647756,199,454,2829
78647777,-118,181,3128
78647797,-331,56,2626
78647817,-313,306,1934
78647837,-104,492,1825
78647857,-55,504,2066
78647877,-95,362,1936
78647897,-83,349,1650
78647918,16,363,1531
78647938,94,401,1625
78647958,-32,352,1870
78647978,-184,214,1766
78647998,-235,198,1444
78648018,-149,317,1206
78648038,-25,481,1113
78648059,53,613,1155
78648079,49,630,1377
78648099,25,563,1667
78648119,20,520,1856
78648139,7,488,1980
78648159,-15,455,2013
78648179,-6,470,1862
78648200,69,514,1793
78648220,199,514,2006
78648240,274,431,2335
78648260,104,366,2410
78648280,93,470,1966
78648300,515,644,1889
78648320,816,721,2352
78648341,622,576,2648
78648361,131,292,2428
78648381,-56,240,2215
78648401,90,307,2230
78648421,258,354,2282
78648441,240,335,2081
78648461,177,303,1790
78648482,207,314,1610
78648502,177,364,1546
78648522,83,367,1524
78648542,-19,326,1336
78648562,-38,364,1145
78648582,-29,478,1081
78648602,17,587,1161
78648623,80,637,1391
78648643,116,601,1752
78648663,70,538,2165
78648683,20,412,2482
78648703,-79,350,2560
78648723,-140,380,2331
78648743,-108,439,2201
78648764,-27,473,2265
78648784,-13,456,2415
78648804,-131,517,2231
78648824,-30,640,1795
78648844,187,662,2194
78648864,146,477,2924
78648884,-75,193,3166
78648905,-274,86,2465
78648925,-267,298,1740
78648945,-58,512,1795
78648965,6,488,2125
78648985,-53,311,2028
78649005,-23,247,1687
78649025,94,338,1404
78649046,187,418,1267
78649066,204,444,1354
78649086,114,453,1558
78649106,36,452,1540
78649126,37,482,1287
78649146,77,557,1156
78649166,134,653,1214
78649187,118,708,1483
78649207,66,613,1725
78649227,49,511,1899
78649247,69,510,2167
78649267,69,518,2262
78649287,133,504,2120
78649307,240,510,2160
78649328,242,480,2402
78649348,37,437,2308
78649368,171,447,1953
78649388,460,564,2163
78649408,580,491,2655
78649428,333,235,2730
78649448,18,77,2436
78649469,-14,215,2123
78649489,198,397,1969
78649509,434,430,1946
78649529,390,404,2072
78649549,243,297,1874
78649569,217,272,1687
78649589,182,329,1525
78649610,141,386,1510
78649630,71,377,1382
78649650,8,414,1168
78649670,20,488,1127
78649690,44,600,1235
78649710,96,678,1326
78649730,142,690,1630
78649751,145,654,1998
78649771,159,595,2203
78649791,88,525,2285
78649811,31,487,2183
78649831,67,490,2056
78649851,135,523,2178
78649871,128,553,2287
78649891,-11,616,2169
78649912,-24,711,1833
78649932,236,723,2000
78649952,358,634,2644
78649972,209,468,3054
78649992,-43,240,3017
78650012,-155,191,2418
78650032,-58,381,1950
78650053,56,513,1794
78650073,97,478,1697
78650093,110,388,1546
78650113,107,355,1522
78650133,90,332,1761
78650153,28,289,1862
78650173,-40,237,1766
78650194,-9,270,1463
78650214,29,388,1246
78650234,79,524,1052
78650254,76,622,1004
78650274,41,641,1125
78650294,-36,613,1315
78650314,-82,578,1449
78650335,-47,526,1729
78650355,-51,480,2161
78650375,-122,417,2431
78650395,-112,327,2291
78650415,106,323,2247
78650435,270,285,2541
78650455,-38,312,2518
78650476,46,382,1924
78650496,538,409,2007
78650516,622,474,2503
78650536,371,133,2917
78650556,28,-70,2669
78650576,145,65,2225
78650596,406,294,2178
78650617,520,333,1974
78650637,411,208,1770
78650657,310,162,1724
78650677,259,223,1642
78650697,207,275,1579
78650717,109,311,1527
78650737,40,355,1355
78650758,17,411,1203
78650778,24,488,1219
78650798,78,539,1299
78650818,151,558,1511
78650838,151,553,1872
78650858,101,492,2203
78650878,17,369,2399
78650899,-73,298,2343
78650919,-60,346,2211
78650939,-10,387,2302
78650959,-15,334,2425
78650979,-148,392,2298
78650999,-159,543,1897
78651019,250,546,1982
78651040,522,448,2746
78651060,256,286,3391
78651080,-181,-9,3044
78651100,-343,-30,2254
78651120,-161,224,1994
78651140,111,413,2189
78651160,139,322,2126
78651181,65,202,1873
78651201,81,198,1512
78651221,144,295,1333
78651241,165,391,1456
78651261,50,369,1510
78651281,-20,284,1315
78651301,-32,314,1190
78651322,35,444,1178
78651342,114,549,1153
78651362,168,629,1233
78651382,148,595,1441
78651402,86,519,1612
78651422,123,466,1812
78651442,140,427,2114
78651463,141,363,2142
78651483,159,334,2015
78651503,236,379,2163
78651523,255,319,2400
78651543,-21,239,2441
78651563,41,272,2096
78651583,470,419,2235
78651604,558,431,2782
78651624,292,193,2966
78651644,-80,35,2562
78651664,-25,129,2301
78651684,179,268,2395
78651704,297,275,2290
78651724,265,210,2012
78651745,222,226,1843
78651765,173,276,1634
78651785,57,293,1484
78651805,-62,288,1384
78651825,-84,303,1223
78651845,-34,389,1070
78651865,14,508,994
78651886,54,619,1014
78651906,80,649,1221
78651926,69,595,1514
78651946,22,503,1767
78651966,-26,429,2091
78651986,-79,381,2350
78652006,-137,360,2296
78652027,-168,368,2246
78652047,-105,403,2380
78652067,15,433,2492
78652087,-66,575,2213
78652107,101,704,1776
78652127,610,674,2152
78652147,593,437,3259
78652168,42,151,3624
78652188,-220,-58,2326
78652208,-100,242,1651
78652228,263,563,2161
78652248,333,507,2178
78652268,173,304,1753
78652288,167,276,1482
78652308,235,331,1233
78652329,275,424,1371
78652349,184,390,1516
78652369,19,315,1615
78652389,-43,288,1444
78652409,-10,394,1301
78652429,73,525,1303
78652449,86,578,1416
78652470,14,529,1492
78652490,14,464,1703
78652510,60,423,1920
78652530,103,424,2128
78652550,136,401,2262
78652570,155,347,2243
78652590,143,265,2274
78652611,-29,215,2393
78652631,-70,202,2286
78652651,161,251,2165
78652671,261,299,2486
78652691,115,142,2873
78652711,-178,-57,2780
78652731,-230,-4,2322
78652752,102,223,1940
78652772,488,428,2030
78652792,537,440,2202
78652812,334,293,1973
78652832,206,206,1703
78652852,219,250,1517
78652872,317,288,1234
78652893,366,300,1120
78652913,244,336,1389
78652933,80,331,1510
78652953,49,368,1245
78652973,148,505,1168
78652993,260,652,1310
78653013,299,701,1469
78653034,212,587,1866
78653054,112,492,2195
78653074,-27,411,2376
78653094,-137,373,2326
78653114,-151,407,2183
78653134,-132,427,2318
78653154,-83,394,2525
78653175,-220,411,2587
78653195,-230,594,1911
78653215,252,595,1992
78653235,497,482,2901
78653255,174,316,3498
78653275,-209,27,2970
78653295,-211,63,2013
78653316,49,429,1853
78653336,238,576,2077
78653356,149,377,2041
78653376,36,216,1717
78653396,72,263,1417
78653416,183,338,1203
78653436,223,396,1296
78653457,79,363,1515
78653477,-63,264,1467
78653497,-65,295,1274
78653517,26,437,1190
78653537,138,576,1220
78653557,128,638,1368
78653577,46,553,1573
78653598,29,484,1749
78653618,62,536,1943
78653638,67,542,1992
78653658,58,485,1955
78653678,112,429,2022
78653698,173,373,2224
78653718,85,335,2458
78653739,90,305,2291
78653759,217,319,2177
78653779,331,247,2615
78653799,208,109,3012
78653819,-63,-42,2870
78653839,-97,15,2316
78653859,169,238,2140
78653880,441,421,2046
78653900,519,422,1986
78653920,368,320,2073
78653940,222,245,2008
78653960,135,217,1791
78653980,118,236,1607
78654000,150,274,1310
78654021,123,388,1013
78654041,168,491,715
78654061,149,585,750
78654081,161,620,1117
78654101,151,550,1427
78654121,135,526,1832
78654141,121,433,2170
78654162,3,323,2314
78654182,-143,293,2360
78654202,-128,331,2385
78654222,-89,383,2419
78654242,-90,382,2526
78654262,-204,440,2432
78654282,-122,559,1935
78654303,255,559,2170
78654323,438,441,3110
78654343,149,272,3483
78654363,-185,61,2775
78654383,-177,145,1843
78654403,38,385,1695
78654423,220,458,1939
78654444,187,328,1971
78654464,116,218,1769
78654484,139,247,1675
78654504,161,316,1646
78654524,131,337,1494
78654544,90,329,1243
78654564,88,335,1020
78654584,99,424,1005
78654605,158,525,1060
78654625,200,589,1132
78654645,204,606,1293
78654665,212,597,1531
78654685,262,580,1816
78654705,289,565,2086
78654725,284,518,2176
78654746,263,458,2173
78654766,300,382,2242
78654786,150,344,2484
78654806,25,259,2271
78654826,257,310,2018
78654846,536,327,2592
78654866,494,99,3373
78654887,17,-206,3733
78654907,-79,-350,3007
78654927,202,11,2327
78654947,537,329,2116
78654967,597,378,1900
78654987,463,278,1680
78655007,316,253,1485
78655028,198,288,1282
78655048,132,307,1133
78655068,75,335,1050
78655088,56,366,960
78655108,58,452,983
78655128,74,518,966
78655148,129,580,1129
78655169,181,624,1474
78655189,174,571,1807
78655209,132,475,2036
78655229,103,396,2156
78655249,115,392,2336
78655269,72,376,2596
78655289,-35,312,2798
78655310,-110,284,2631
78655330,38,441,2374
78655350,240,566,2579
78655370,281,470,2922
78655390,202,300,3099
78655410,114,106,3104
78655430,8,-40,2807
78655451,-79,18,2306
78655471,-55,145,1973
78655491,10,269,1755
78655511,104,352,1581
78655531,147,375,1539
78655551,101,357,1573
78655571,19,341,1516
78655592,-30,350,1408
78655612,-17,367,1257
78655632,37,435,1205
78655652,117,522,1215
78655672,152,578,1205
78655692,130,556,1182
78655712,57,540,1213
78655733,6,510,1265
78655753,-12,507,1300
78655773,-43,539,1441
78655793,-114,519,1574
78655813,-189,452,1605
78655833,-158,415,1742
78655853,-94,474,1862
78655874,-88,503,1832
78655894,-102,444,1828
78655914,11,360,1995
78655934,74,354,2231
78655954,-53,342,2285
78655974,-243,480,1888
78655994,225,651,1630
78656015,973,701,2051
78656035,983,436,3387
78656055,223,-4,3923
78656075,-250,-354,3413
78656095,-203,-184,2616
78656115,57,179,2384
78656135,249,327,2376
78656156,63,272,2220
78656176,-95,243,1822
78656196,-95,349,1251
78656216,25,507,774
78656236,119,673,664
78656256,97,765,821
78656276,26,738,1092
78656297,20,672,1437
78656317,82,635,1808
78656337,134,592,1944
78656357,86,525,1942
78656377,-32,466,2034
78656397,-105,399,2109
78656417,-120,378,2224
78656438,-72,364,2419
78656458,22,307,2697
78656478,-69,423,2643
78656498,102,804,1937
78656518,811,1078,1729
78656538,1086,922,3192
78656558,281,408,3942
78656579,-349,-117,2797
78656599,-508,36,1706
78656619,-148,467,1760
78656639,194,574,2383
78656659,123,328,2025
78656679,5,213,1589
78656699,80,214,1380
78656720,150,356,1443
78656740,137,427,1597
78656760,-2,335,1443
78656780,-98,304,1239
78656800,-103,376,1031
78656820,-38,509,924
78656840,71,649,954
78656860,139,696,1114
78656881,133,617,1354
78656901,116,512,1593
78656921,101,482,1805
78656941,92,478,1891
78656961,129,460,1896
78656981,184,473,1953
78657001,137,480,2132
78657022,-4,450,2174
78657042,193,493,1870
78657062,561,585,1997
78657082,646,487,2717
78657102,333,225,3165
78657122,72,66,2956
78657142,90,172,2524
78657163,299,403,2300
78657183,447,461,2170
78657203,401,424,2046
78657223,285,403,1918
78657243,186,417,1712
78657263,119,437,1375
78657283,70,469,1090
78657304,9,509,1003
78657324,-71,557,1019
78657344,-139,580,1110
78657364,-160,576,1229
78657384,-113,596,1426
78657404,-36,621,1665
78657424,-34,562,1957
78657445,-141,413,2262
78657465,-368,346,2468
78657485,-410,320,2427
78657505,-340,388,2253
78657525,-186,430,2557
78657545,-174,446,2753
78657565,-424,564,2229
78657586,-192,665,1900
78657606,315,609,2394
78657626,349,436,3187
78657646,-62,313,3337
78657666,-221,146,2327
78657686,-193,307,1962
78657706,-12,434,2206
78657727,43,334,2097
78657747,55,212,1725
78657767,129,240,1444
78657787,218,350,1393
78657807,221,437,1495
78657827,121,394,1449
78657847,8,320,1271
78657868,-14,327,1062
78657888,25,443,1036
78657908,117,577,1087
78657928,147,631,1211
78657948,150,575,1427
78657968,170,517,1678
78657988,179,506,1956
78658009,187,477,2158
78658029,215,408,2213
78658049,226,344,2296
78658069,159,277,2370
78658089,-29,224,2342
78658109,-4,250,2040
78658129,280,388,1946
78658150,392,420,2385
78658170,154,163,2733
78658190,-181,-53,2645
78658210,-194,51,2210
78658230,203,269,1856
78658250,566,475,2162
78658270,554,430,2538
78658291,253,194,2394
78658311,111,107,2051
78658331,124,226,1764
78658351,174,357,1537
78658371,155,399,1301
78658391,94,406,1077
78658411,50,459,996
78658432,37,535,948
78658452,84,595,1200
78658472,173,597,1590
78658492,136,581,1793
78658512,19,462,1954
78658532,-110,396,2123
78658552,-152,418,2123
78658573,-131,441,2106
78658593,-138,455,2235
78658613,-103,410,2355
78658633,-127,415,2606
78658653,-207,568,2280
78658673,14,616,2024
78658693,337,422,2779
78658714,249,297,3464
78658734,-37,121,3306
78658754,-154,95,2232
78658774,-42,359,1798
78658794,135,472,1902
78658814,161,368,2038
78658834,110,232,1889
78658855,125,214,1686
78658875,107,243,1541
78658895,44,286,1468
78658915,48,329,1285
78658935,70,374,1037
78658955,90,454,854
78658975,118,575,825
78658996,153,694,1045
78659016,160,685,1346
78659036,129,605,1536
78659056,91,546,1720
78659076,148,490,2031
78659096,200,466,2402
78659116,155,412,2543
78659136,140,303,2313
78659157,242,251,2250
78659177,200,283,2452
78659197,123,283,2159
78659217,309,283,1948
78659237,513,307,2233
78659257,399,161,2799
78659277,-70,-72,2898
78659298,-232,-164,2485
78659318,-117,66,2043
78659338,397,319,2134
78659358,586,378,2540
78659378,449,230,2462
78659398,247,123,2176
78659418,168,131,1941
78659439,118,220,1726
78659459,95,278,1354
78659479,73,332,1022
78659499,97,402,851
78659519,112,502,868
78659539,124,585,1010
78659559,110,588,1210
78659580,111,540,1416
78659600,60,472,1655
78659620,-11,398,1982
78659640,-148,346,2152
78659660,-234,337,2090
78659680,-162,420,2115
78659700,-24,512,2246
78659721,48,536,2465
78659741,-97,558,2476
78659761,-130,651,2059
78659781,296,590,2158
78659801,536,459,3065
78659821,209,364,3525
78659841,-60,179,2864
78659862,-68,213,2133
78659882,87,460,2163
78659902,219,516,2260
78659922,197,359,2090
78659942,156,259,1777
78659962,166,281,1401
78659982,196,364,1196
78660003,164,430,1218
78660023,98,432,1221
78660043,40,414,1158
78660063,8,426,1093
78660083,47,457,1151
78660103,129,533,1314
78660123,131,604,1421
78660144,124,564,1542
78660164,154,448,1760
78660184,101,400,2031
78660204,38,389,2133
78660224,143,365,2011
78660244,302,378,2121
78660264,231,290,2355
78660285,-87,240,2469
78660305,-37,299,2137
78660325,287,372,2009
78660345,406,444,2590
78660365,230,283,2892
78660385,44,136,2644
78660405,168,233,2215
78660426,426,351,2333
78660446,535,403,2623
78660466,352,217,2483
78660486,202,94,2215
78660506,181,161,1936
78660526,151,266,1585
78660546,109,320,1182
78660567,64,392,889
78660587,20,456,778
78660607,-28,510,862
78660627,-51,539,1059
78660647,12,548,1256
78660667,61,575,1463
78660687,33,558,1651
78660708,-31,482,1862
78660728,-123,429,2143
78660748,-208,386,2355
78660768,-239,347,2439
78660788,-173,326,2506
78660808,-101,351,2603
78660828,-140,543,2267
78660849,6,709,1907
78660869,471,621,2407
78660889,605,404,3486
78660909,231,205,3871
78660929,10,35,2763
78660949,33,237,1957
78660969,209,467,2118
78660990,236,398,2147
78661010,131,212,1817
78661030,79,191,1483
78661050,122,257,1107
78661070,230,377,1046
78661090,210,433,1328
78661110,99,368,1429
78661131,-11,280,1270
78661151,2,367,1215
78661171,15,485,1166
78661191,95,572,985
78661211,159,663,985
78661231,206,677,1339
78661251,218,554,1762
78661271,236,468,2020
78661292,269,404,2144
78661312,321,367,2189
78661332,318,335,2265
78661352,195,284,2417
78661372,-44,196,2389
78661392,13,223,1984
78661412,416,471,1874
78661433,574,667,2237
78661453,346,502,2634
78661473,49,261,2445
78661493,-5,332,2085
78661513,220,521,2065
78661533,484,525,2493
78661553,436,395,2844
78661574,267,228,2640
78661594,191,186,2175
78661614,212,285,1792
78661634,224,405,1468
78661654,190,459,1159
78661674,134,483,968
78661694,96,537,888
78661715,99,614,938
78661735,147,661,1112
78661755,162,653,1399
78661775,124,573,1719
78661795,50,445,1928
78661815,-45,369,2114
78661835,-157,393,2166
78661856,-216,402,2078
78661876,-149,405,2075
78661896,16,418,2302
78661916,27,458,2519
78661936,-111,579,2284
78661956,55,669,1884
78661976,316,682,2379
78661997,470,560,3078
78662017,279,482,3645
78662037,-114,183,2493
78662057,-164,270,1825
78662077,87,504,2213
78662097,151,434,2488
78662117,1,229,1946
78662138,49,244,1653
78662158,108,317,1403
78662178,150,422,1377
78662198,120,440,1472
78662218,43,385,1345
78662238,-12,394,1161
78662258,-15,457,1008
78662279,62,587,891
78662299,163,698,987
78662319,188,677,1350
78662339,171,537,1669
78662359,155,439,1971
78662379,132,392,2314
78662399,68,335,2396
78662420,49,286,2131
78662440,152,330,2108
78662460,225,378,2364
78662480,116,359,2348
78662500,177,355,2109
78662520,423,461,2222
78662540,457,442,2678
78662561,267,193,2883
78662581,23,5,2619
78662601,-66,64,2218
78662621,49,235,1928
78662641,284,372,1867
78662661,384,393,2116
78662681,278,292,2151
78662702,161,203,1851
78662722,152,225,1556
78662742,152,320,1505
78662762,105,373,1372
78662782,32,366,1153
78662802,13,403,1009
78662822,31,502,1032
78662843,125,629,1212
78662863,219,663,1406
78662883,216,639,1697
78662903,152,541,1946
78662923,62,434,2183
78662943,-98,381,2336
78662963,-143,411,2175
78662984,-68,534,2021
78663004,69,605,2198
78663024,62,558,2429
78663044,-195,576,2268
78663064,-44,653,1817
78663084,400,563,2349
78663104,435,454,3288
78663125,-43,198,3561
78663145,-307,-83,2646
78663165,-248,139,1832
78663185,67,490,1713
78663205,219,582,1965
78663225,128,368,2031
78663245,28,200,1844
78663266,55,256,1631
78663286,102,324,1493
78663306,100,368,1484
78663326,50,390,1396
78663346,7,395,1270
78663366,21,424,1172
78663386,88,512,1203
78663407,144,594,1320
78663427,154,577,1491
78663447,121,511,1676
78663467,100,462,1841
78663487,139,433,2063
78663507,162,414,2192
78663527,163,407,2057
78663547,213,440,1874
78663568,274,480,2040
78663588,148,456,2144
78663608,223,403,2015
78663628,359,470,2193
78663648,416,364,2639
78663668,233,97,3007
78663688,-124,-113,2986
78663709,-184,-29,2390
78663729,11,214,2014
78663749,297,391,2055
78663769,417,385,2154
78663789,380,281,2064
78663809,308,286,1920
78663829,237,260,1721
78663850,149,280,1612
78663870,133,305,1247
78663890,78,386,1041
78663910,86,456,929
78663930,78,543,1042
78663950,119,597,1193
78663970,139,611,1428
78663991,163,591,1753
78664011,147,505,2093
78664031,-1,413,2320
78664051,-212,375,2358
78664071,-241,426,2108
78664091,-134,554,1965
78664111,-49,633,2208
78664132,-141,575,2439
78664152,-335,533,2263
78664172,-225,585,1893
78664192,123,584,2318
78664212,132,469,3010
78664232,-167,261,3062
78664252,-345,123,2443
78664273,-251,265,1915
78664293,-48,470,1981
78664313,32,439,2117
78664333,-1,280,1957
78664353,17,241,1695
78664373,103,316,1482
78664393,150,401,1465
78664414,102,416,1517
78664434,33,359,1424
78664454,-16,366,1318
78664474,21,452,1165
78664494,110,568,1135
78664514,176,632,1328
78664534,144,608,1662
78664555,19,517,1782
78664575,3,445,1825
78664595,112,503,1886
78664615,144,588,1992
78664635,77,538,1964
78664655,85,462,1935
78664675,191,486,2112
78664696,37,489,2283
78664716,222,363,2057
78664736,422,451,2078
78664756,321,366,2734
78664776,-16,43,3028
78664796,-319,-216,2940
78664816,-202,-95,2341
78664837,232,280,1962
78664857,605,498,2111
78664877,585,415,2438
78664897,307,172,2353
78664917,134,73,2121
78664937,125,101,1996
78664957,166,176,1761
78664978,127,251,1583
78664998,92,294,1226
78665018,133,382,876
78665038,216,523,813
78665058,276,663,912
78665078,257,706,1104
78665098,187,624,1340
78665119,161,511,1570
78665139,179,459,1826
78665159,136,494,2108
78665179,26,550,2188
78665199,-57,546,1950
78665219,-94,544,1961
78665239,-85,548,2225
78665260,-200,563,2413
78665280,-336,678,2033
78665300,-50,595,1825
78665320,321,424,2654
78665340,86,280,3685
78665360,-378,-1,3526
78665380,-500,-36,2293
78665401,-247,278,1706
78665421,61,582,2024
78665441,94,466,2310
78665461,-63,214,2097
78665481,-18,183,1718
78665501,144,261,1488
78665521,245,328,1408
78665542,163,357,1561
78665562,29,313,1558
78665582,-58,222,1199
78665602,-50,226,889
78665622,57,367,838
78665642,174,546,1098
78665662,190,529,1484
78665683,136,386,1715
78665703,67,337,1955
78665723,99,389,2145
78665743,183,429,2117
78665763,274,399,2147
78665783,378,311,2451
78665803,253,236,2658
78665824,39,263,2298
78665844,421,416,1961
78665864,730,542,2216
78665884,584,327,2824
78665904,64,-77,3092
78665924,-215,-249,2877
78665944,-77,-132,2520
78665964,195,71,2264
78665985,372,130,2185
78666005,329,89,2256
78666025,193,61,2136
78666045,97,67,1827
78666065,60,102,1439
78666085,55,194,1091
78666105,55,297,917
78666126,27,392,901
78666146,-12,436,992
78666166,-24,447,1112
78666186,18,475,1238
78666206,70,504,1549
78666226,143,530,1940
78666246,88,517,2078
78666267,-87,461,1984
78666287,-162,425,2046
78666307,-88,442,2211
78666327,73,509,2381
78666347,-7,583,2409
78666367,-53,714,1996
78666387,411,543,2237
78666408,607,448,3001
78666428,192,278,3864
78666448,-293,-138,3177
78666468,-451,-139,2106
78666488,-215,165,1915
78666508,131,345,2254
78666528,170,247,2233
78666549,52,120,1818
78666569,66,153,1591
78666589,99,280,1481
78666609,119,370,1339
78666629,72,374,1219
78666649,36,369,1096
78666669,24,411,1013
78666690,68,503,990
78666710,149,605,1041
78666730,184,633,1283
78666750,144,570,1622
78666770,116,477,1873
78666790,118,418,2053
78666810,109,408,2068
78666831,125,383,1973
78666851,208,342,2039
78666871,228,309,2230
78666891,13,281,2313
78666911,-34,273,2070
78666931,359,355,2108
78666951,607,381,2626
78666972,437,170,3063
78666992,13,-77,3035
78667012,-148,-116,2579
78667032,40,92,2356
78667052,305,262,2372
78667072,387,259,2246
78667092,303,232,2065
78667113,236,297,1836
78667133,180,375,1434
78667153,112,433,1083
78667173,82,480,934
78667193,82,521,950
78667213,103,550,995
78667233,162,631,1055
78667254,220,707,1131
78667274,304,762,1347
78667294,369,793,1673
78667314,340,722,2111
78667334,140,549,2414
78667354,36,411,2389
78667374,62,499,2345
78667395,118,582,2577
78667415,148,514,2968
78667435,-56,402,2888
78667455,-220,491,1882
78667475,95,592,1634
78667495,289,614,2582
78667515,113,402,2793
78667536,-179,233,2220
78667556,-153,354,1607
78667576,87,490,1686
78667596,245,521,2285
78667616,258,341,2318
78667636,222,236,1954
78667656,270,322,1687
78667677,318,366,1510
78667697,274,425,1551
78667717,174,430,1566
78667737,85,403,1344
78667757,96,438,1122
78667777,176,565,982
78667797,250,709,960
78667818,232,746,1038
78667838,174,635,1316
78667858,162,505,1742
78667878,225,451,2113
78667898,242,456,2293
78667918,193,464,2163
78667938,213,440,1985
78667959,286,429,2177
78667979,159,412,2441
78667999,63,306,2262
78668019,302,335,2000
78668039,484,484,2310
78668059,385,361,2773
78668079,52,130,2835
78668100,-24,126,2240
78668120,182,360,1823
78668140,618,506,2029
78668160,724,426,2608
78668180,497,233,2677
78668200,251,95,2258
78668220,179,168,1887
78668240,163,280,1712
78668261,120,312,1354
78668281,69,332,1078
78668301,53,367,953
78668321,57,444,925
78668341,92,565,1065
78668361,135,617,1216
78668381,148,620,1477
78668402,155,531,1725
78668422,129,428,2021
78668442,2,384,2394
78668462,-128,355,2280
78668482,-154,401,1971
78668502,-25,516,2097
78668522,59,551,2406
78668543,-41,507,2426
78668563,-103,528,2131
78668583,168,510,2160
78668603,401,409,2852
78668623,229,298,3415
78668643,-77,102,3034
78668663,-181,70,2012
78668684,8,337,1775
78668704,198,500,2058
78668724,154,400,2110
78668744,94,223,1796
78668764,165,218,1540
78668784,237,329,1567
78668804,214,387,1752
78668825,111,319,1624
78668845,22,293,1352
78668865,8,364,1121
78668885,80,486,948
78668905,188,637,952
78668925,246,720,1203
78668945,198,657,1533
78668966,110,522,1705
78668986,103,471,1849
78669006,138,515,1988
78669026,174,527,2038
78669046,193,457,2066
78669066,283,362,2156
78669086,318,288,2483
78669107,73,231,2624
78669127,222,226,2067
78669147,498,421,2122
78669167,529,258,2839
78669187,151,-40,3008
78669207,-189,-251,2749
78669227,-102,-73,2274
78669248,241,169,2046
78669268,561,362,2314
78669288,460,303,2404
78669308,295,195,2175
78669328,241,194,1852
78669348,236,263,1582
78669368,245,349,1304
78669389,214,411,1056
78669409,209,461,897
78669429,199,527,891
78669449,188,613,1016
78669469,201,647,1119
78669489,230,642,1256
78669509,243,599,1533
78669530,213,514,1888
78669550,86,420,2262
78669570,-83,343,2394
78669590,-161,342,2243
78669610,-94,419,2212
78669630,17,473,2430
78669650,-74,492,2620
78669671,-220,515,2276
78669691,-41,504,1882
78669711,276,432,2537
78669731,195,343,3270
78669751,-89,165,2905
78669771,-203,171,2033
78669791,-34,406,1647
78669812,181,567,2061
78669832,190,427,2285
78669852,74,260,1988
78669872,128,260,1717
78669892,209,310,1510
78669912,231,407,1497
78669932,143,417,1590
78669953,65,353,1447
78669973,31,354,1296
78669993,32,408,1138
78670013,106,501,1131
78670033,142,575,1211
78670053,100,563,1386
78670073,97,468,1514
78670094,110,452,1712
78670114,173,431,2036
78670134,193,382,2123
78670154,142,377,2039
78670174,151,372,1971
78670194,180,340,2218
78670214,4,256,2538
78670235,-53,195,2393
78670255,437,377,1916
78670275,707,498,2265
78670295,454,187,3079
78670315,-92,-200,3244
78670335,-223,-297,2855
78670355,-5,-38,2349
78670376,301,194,2256
78670396,401,242,2272
78670416,267,202,2225
78670436,132,181,2014
78670456,68,193,1674
78670476,43,252,1364
78670496,50,331,1141
78670517,44,401,1038
78670537,-7,446,1071
78670557,-50,472,1142
78670577,-29,525,1216
78670597,28,593,1421
78670617,88,623,1701
78670637,71,564,1948
78670657,-20,465,2135
78670678,-123,417,2223
78670698,-164,452,2111
78670718,-168,543,1979
78670738,-197,586,2062
78670758,-302,614,2223
78670778,-395,707,2003
78670798,-133,690,1980
78670819,44,443,2596
78670839,-320,137,3537
78670859,-671,-128,3518
78670879,-691,-83,2319
78670899,-475,210,1816
78670919,-268,340,1972
78670939,-167,188,2011
78670960,-77,237,1734
78670980,13,335,1364
78671000,37,359,1191
78671020,-25,334,1244
78671040,-168,233,1438
78671060,-281,180,1481
78671080,-314,186,1464
78671101,-254,187,1199
78671121,-129,307,1137
78671141,-104,434,1254
78671161,-154,432,1399
78671181,-231,392,1527
78671201,-220,363,1675
78671221,-267,397,1974
78671242,-336,379,2175
78671262,-410,336,2143
78671282,-424,292,2176
78671302,-375,223,2416
78671322,-547,167,2586
78671342,-682,223,2540
78671362,-271,388,2145
78671383,253,418,2334
78671403,98,163,3033
78671423,-481,-109,3493
78671443,-766,-248,2698
78671463,-552,-147,1667
78671483,-119,70,1878
78671503,137,130,2425
78671524,52,10,2400
78671544,-126,-75,1947
78671564,-265,-34,1546
78671584,-348,61,1301
78671604,-381,160,1139
78671624,-376,232,1025
78671644,-392,291,1070
78671665,-402,346,1155
78671685,-366,418,1154
78671705,-268,524,1239
78671725,-152,602,1444
78671745,-156,565,1736
78671765,-117,464,2104
78671785,-207,423,2178
78671806,-273,460,2079
78671826,-297,517,2159
78671846,-288,483,2413
78671866,-306,413,2753
78671886,-406,519,2410
78671906,-281,831,1841
78671926,261,736,2459
78671947,267,425,3437
78671967,-382,155,3845
78671987,-819,-99,2487
78672007,-914,3,1368
78672027,-692,274,1299
78672047,-354,329,1995
78672067,-109,248,2179
78672088,-40,275,1800
78672108,-64,267,1400
78672128,-138,213,1215
78672148,-282,206,1225
78672168,-319,219,1162
78672188,-272,274,1048
78672208,-207,384,996
78672229,-167,490,962
78672249,-117,535,1038
78672269,-63,546,1357
78672289,1,558,1791
78672309,53,533,2051
78672329,11,499,2251
78672349,-105,464,2272
78672370,-151,423,2127
78672390,-119,408,2224
78672410,-231,349,2504
78672430,-389,286,2423
78672450,-107,423,2225
78672470,241,558,2697
78672490,183,358,3439
78672511,-100,79,3481
78672531,-227,83,2521
78672551,-267,210,1823
78672571,-87,188,1828
78672591,150,129,2066
78672611,108,208,2248
78672631,18,151,2103
78672652,-5,126,1760
78672672,-14,201,1558
78672692,-33,280,1342
78672712,-44,283,1200
78672732,-121,297,977
78672752,-121,412,837
78672772,-85,504,838
78672793,-126,516,982
78672813,-160,474,1266
78672833,-145,424,1526
78672853,-90,373,1829
78672873,-92,312,2231
78672893,-213,318,2557
78672913,-395,297,2435
78672933,-445,254,2126
78672954,-494,253,2164
78672974,-567,219,2308
78672994,-622,371,2201
78673014,-361,517,1896
78673034,1,419,2252
78673054,13,204,3245
78673074,-315,-27,3712
78673095,-639,-249,2909
78673115,-655,-111,1780
78673135,-392,185,1607
78673155,-178,290,2208
78673175,-160,196,2498
78673195,-168,161,2128
78673215,-127,189,1729
78673236,-81,240,1535
78673256,-205,282,1507
78673276,-365,200,1440
78673296,-342,165,1108
78673316,-324,294,755
78673336,-208,491,765
78673356,-8,698,1163
78673377,113,786,1556
78673397,70,705,1779
78673417,15,498,1874
78673437,9,416,2080
78673457,-42,433,2265
78673477,-108,375,2208
78673497,-211,272,2111
78673518,-188,182,2102
78673538,-177,129,2310
78673558,-362,307,2536
78673578,133,461,2152
78673598,383,537,2399
78673618,67,331,3132
78673638,-421,12,3196
78673659,-388,38,2183
78673679,-331,200,1349
78673699,388,427,1616
78673719,594,504,1886
78673739,416,306,2646
78673759,-362,-92,2335
78673779,-767,-351,1773
78673800,-743,-228,1322
78673820,-572,97,1234
78673840,-413,295,1144
78673860,-327,406,1153
78673880,-302,512,1061
78673900,-291,561,963
78673920,-119,667,986
78673941,28,791,1299
78673961,133,759,1739
78673981,45,645,2091
78674001,-226,473,2253
78674021,-501,289,2201
78674041,-662,219,2181
78674061,-606,272,2438
78674082,-552,375,2720
78674102,-395,520,2410
78674122,-85,594,2004
78674142,209,474,2728
78674162,154,288,3725
78674182,-260,-16,3514
78674202,-576,-214,2284
78674223,-643,-112,1311
78674243,-336,156,1508
78674263,44,370,2211
78674283,209,424,2215
78674303,107,428,1719
78674323,-43,336,1360
78674343,-119,219,1208
78674364,-93,209,1364
78674384,61,383,1341
78674404,127,459,949
78674424,109,490,777
78674444,-63,404,949
78674464,10,440,1177
78674484,-126,564,1441
78674505,-127,432,1667
78674525,-185,350,2016
78674545,-161,357,2206
78674565,-152,381,2290
78674585,-162,385,2329
78674605,66,421,2546
78674625,194,473,2546
78674646,65,318,2658
78674666,-197,276,2472
78674686,119,395,1958
78674706,256,414,2258
78674726,-47,172,3140
78674746,-488,29,3434
78674766,-475,-22,2487
78674787,-243,224,1720
78674807,-11,315,1522
78674827,73,164,1964
78674847,189,162,2512
78674867,120,191,2286
78674887,-40,136,1694
78674907,-235,87,1438
78674928,-366,92,1247
78674948,-351,192,1076
78674968,-256,344,970
78674988,-147,505,886
78675008,-74,656,826
78675028,-125,686,847
78675048,-207,559,1016
78675069,-265,419,1331
78675089,-218,376,1758
78675109,-331,381,2260
78675129,9,336,2538
78675149,256,470,2468
78675169,339,686,2196
78675189,299,676,2174
78675209,159,817,2437
78675230,372,900,2426
78675250,575,633,2851
78675270,222,257,3565
78675290,-238,-112,3685
78675310,-420,-156,2714
78675330,-411,126,1825
78675350,-184,334,1469
78675371,-132,322,2076
78675391,-185,80,2444
78675411,-257,-19,2237
78675431,-173,74,1804
78675451,-81,153,1697
78675471,-83,198,1590
78675491,-93,255,1335
78675512,-82,280,1110
78675532,-69,361,924
78675552,-59,473,837
78675572,5,629,785
78675592,109,733,857
78675612,131,741,1184
78675632,84,662,1479
78675653,60,580,1737
78675673,66,505,1985
78675693,-7,464,2245
78675713,-102,422,2445
78675733,-105,355,2441
78675753,-65,292,2427
78675773,-157,280,2594
78675794,-116,261,2461
78675814,118,209,2375
78675834,119,150,2726
78675854,-110,-21,2907
78675874,-317,-175,2590
78675894,-241,-34,2154
78675914,27,217,1971
78675935,336,292,1986
78675955,410,212,2278
78675975,295,123,2459
78675995,195,65,2225
78676015,156,70,1874
78676035,134,150,1683
78676055,108,233,1482
78676076,88,292,1207
78676096,84,380,990
78676116,155,485,768
78676136,180,621,779
78676156,226,703,916
78676176,178,603,1264
78676196,145,468,1591
78676217,136,346,1961
78676237,3,229,2457
78676257,-220,131,2710
78676277,-308,91,2480
78676297,-184,180,2152
78676317,-35,302,2435
78676337,-195,282,2688
78676358,-399,395,2234
78676378,-99,411,1842
78676398,166,240,2457
78676418,44,113,3235
78676438,-216,52,3339
78676458,-263,-11,2297
78676478,-144,232,1727
78676499,60,368,1951
78676519,139,309,2454
78676539,88,181,2307
78676559,77,157,1909
78676579,119,142,1620
78676599,123,204,1440
78676619,124,312,1412
78676640,131,382,1403
78676660,127,412,1295
78676680,142,434,1100
78676700,147,498,994
78676720,137,581,1107
78676740,102,606,1293
78676760,80,575,1444
78676781,160,559,1539
78676801,307,597,1698
78676821,372,642,1973
78676841,324,608,2216
78676861,244,462,2265
78676881,89,257,2328
78676901,-148,142,2484
78676922,-7,159,2416
78676942,307,289,2352
78676962,384,207,2763
78676982,111,-58,3190
78677002,-212,-265,3035
78677022,-269,-143,2453
78677042,8,95,2041
78677063,397,257,2037
78677083,503,305,2368
78677103,338,204,2328
78677123,156,158,2039
78677143,68,186,1679
78677163,64,254,1288
78677183,50,360,957
78677204,63,438,790
78677224,24,510,801
78677244,13,591,906
78677264,22,647,1034
78677284,100,669,1241
78677304,163,647,1533
78677324,184,590,1839
78677345,134,450,2214
78677365,-53,297,2372
78677385,-229,225,2247
78677405,-212,329,2151
78677425,-100,464,2240
78677445,-115,534,2358
78677465,-158,604,2161
78677485,164,535,2173
78677506,427,407,2838
78677526,316,310,3471
78677546,-33,53,3336
78677566,-222,-49,2488
78677586,-126,171,1844
78677606,112,375,1743
78677626,240,411,2008
78677647,233,315,2049
78677667,157,255,1824
78677687,92,255,1645
78677707,57,290,1607
78677727,27,335,1614
78677747,15,360,1502
78677767,22,400,1346
78677788,35,469,1165
78677808,64,550,1005
78677828,87,621,1023
78677848,87,618,1306
78677868,58,573,1535
78677888,-5,527,1683
78677908,6,471,1784
78677929,21,447,1943
78677949,16,403,2050
78677969,21,354,2087
78677989,138,314,2147
78678009,145,318,2341
78678029,-44,292,2351
78678049,154,307,1965
78678070,428,418,2151
78678090,455,292,2811
78678110,168,76,2966
78678130,-53,-74,2688
78678150,97,132,2261
78678170,375,323,2424
78678190,447,302,2572
78678211,322,207,2370
78678231,263,212,2137
78678251,280,246,1822
78678271,250,335,1608
78678291,196,392,1360
78678311,115,420,1131
78678331,56,458,904
78678352,27,516,752
78678372,22,626,793
78678392,53,697,1059
78678412,81,659,1305
78678432,72,588,1540
78678452,65,503,1970
78678472,3,425,2416
78678493,-115,362,2564
78678513,-184,333,2499
78678533,-134,400,2451
78678553,-25,468,2558
78678573,-66,510,2524
78678593,-98,644,2153
78678613,191,793,1906
78678634,481,715,2441
78678654,396,469,3230
78678674,34,216,3000
78678694,-187,210,2102
78678714,-139,406,1661
78678734,12,501,2063
78678754,76,374,2280
78678775,36,263,1995
78678795,59,245,1621
78678815,111,280,1389
78678835,176,364,1311
78678855,164,413,1362
78678875,126,406,1328
78678895,75,402,1146
78678916,62,442,984
78678936,116,518,1040
78678956,191,637,1237
78678976,206,681,1383
78678996,127,655,1596
78679016,141,555,1776
78679036,197,534,1995
78679057,224,573,2217
78679077,210,600,2271
78679097,255,586,2123
78679117,221,545,2207
78679137,72,529,2287
78679157,192,442,2299
78679177,338,389,2516
78679198,277,264,2960
78679218,25,31,3095
78679238,-131,-63,2706
78679258,-47,155,2149
78679278,171,352,1946
78679298,406,418,2047
78679318,475,394,2245
78679339,400,336,2191
78679359,266,266,1960
78679379,168,241,1761
78679399,108,291,1564
78679419,86,354,1279
78679439,78,422,1017
78679459,96,500,810
78679480,133,610,731
78679500,192,737,910
78679520,230,771,1256
78679540,215,692,1541
78679560,188,569,1775
78679580,143,439,2047
78679600,-1,359,2347
78679621,-149,328,2474
78679641,-166,383,2316
78679661,-89,507,2186
78679681,-23,542,2354
78679701,-178,568,2446
78679721,-189,689,2093
78679741,185,686,1946
78679761,452,524,2626
78679782,257,443,3420
78679802,-142,175,3238
78679822,-266,86,2151
78679842,-150,317,1500
78679862,136,602,1709
78679882,238,614,2189
78679902,97,345,1996
78679923,32,289,1616
78679943,71,368,1476
78679963,154,436,1368
78679983,151,495,1423
78680003,68,448,1431
78680023,-3,397,1323
78680043,-14,410,1192
78680064,71,494,1086
78680084,196,600,1143
78680104,223,671,1423
78680124,172,599,1659
78680144,112,518,1762
78680164,96,492,1879
78680184,83,528,2022
78680205,118,526,2028
78680225,209,494,2053
78680245,250,426,2336
78680265,92,344,2616
78680285,32,322,2331
78680305,312,426,2035
78680325,434,496,2503
78680346,205,296,2973
78680366,-103,80,2788
78680386,-170,160,2274
78680406,48,381,1924
78680426,359,454,1983
78680446,434,390,2398
78680466,252,264,2508
78680487,133,136,2108
78680507,158,149,1744
78680527,175,272,1607
78680547,164,367,1434
78680567,146,406,1140
78680587,146,457,864
78680607,168,595,728
78680628,187,736,774
78680648,198,789,959
78680668,218,764,1249
78680688,231,702,1605
78680708,160,581,1936
78680728,-19,446,2255
78680748,-179,339,2421
78680769,-171,353,2320
78680789,-35,467,2322
78680809,51,529,2564
78680829,-9,681,2544
78680849,279,823,2115
78680869,514,703,2498
78680889,428,442,3222
78680910,103,292,3642
78680930,-140,67,2656
78680950,-236,225,1735
78680970,-70,479,1499
78680990,136,556,1894
78681010,189,445,2191
78681030,100,294,1844
78681051,54,246,1630
78681071,23,224,1574
78681091,31,310,1661
78681111,47,379,1634
78681131,49,386,1409
78681151,44,415,1142
78681171,65,487,994
78681192,96,604,1014
78681212,124,692,1191
78681232,133,674,1350
78681252,139,627,1484
78681272,136,592,1730
78681292,123,542,2028
78681312,77,516,2174
78681333,45,485,1996
78681353,105,471,1932
78681373,94,507,2228
78681393,24,484,2288
78681413,154,420,2060
78681433,318,435,2173
78681453,312,356,2665
78681474,21,127,2977
78681494,-223,-100,2745
78681514,-155,96,2198
78681534,295,341,2105
78681554,586,461,2520
78681574,543,388,2563
78681594,334,269,2177
78681615,225,187,1801
78681635,223,230,1625
78681655,207,329,1514
78681675,138,421,1304
78681695,96,435,1061
78681715,100,470,829
78681735,111,591,751
78681756,207,744,900
78681776,319,836,1195
78681796,380,790,1467
78681816,358,652,1721
78681836,295,558,2087
78681856,145,461,2452
78681876,-3,402,2514
78681897,1,423,2371
78681917,81,525,2327
78681937,41,592,2508
78681957,-78,661,2384
78681977,128,639,2131
78681997,400,543,2597
78682017,342,451,3203
78682037,76,310,3177
78682058,-75,211,2376
78682078,-44,370,1806
78682098,155,556,1920
78682118,255,572,2246
78682138,192,405,2135
78682158,150,279,1777
78682178,190,271,1509
78682199,220,345,1445
78682219,186,420,1569
78682239,150,394,1598
78682259,187,367,1480
78682279,177,401,1227
78682299,117,462,985
78682319,83,535,972
78682340,85,604,1163
78682360,87,655,1209
78682380,96,652,1127
78682400,176,669,1321
78682420,248,708,1693
78682440,199,695,1941
78682460,99,598,2026
78682481,145,542,2028
78682501,218,530,2314
78682521,11,510,2620
78682541,130,405,2235
78682561,384,515,1997
78682581,528,502,2561
78682601,375,294,3123
78682622,-54,25,3093
78682642,-149,16,2416
78682662,39,266,2004
78682682,517,536,2025
78682702,742,639,2351
78682722,630,507,2276
78682742,387,310,1988
78682763,253,266,1827
78682783,205,334,1680
78682803,217,382,1454
78682823,217,446,1262
78682843,178,529,1159
78682863,118,614,1096
78682883,91,675,1028
78682904,91,707,1057
78682924,83,709,1311
78682944,77,657,1578
78682964,46,573,1848
78682984,-56,525,2091
78683004,-174,498,2087
78683024,-192,506,1938
78683045,-88,558,1999
78683065,-58,627,2234
78683085,-8,701,2274
78683105,301,655,2373
78683125,551,601,3116
78683145,466,501,3754
78683165,198,283,3027
78683186,17,317,1955
78683206,60,587,1445
78683226,270,791,1730
78683246,307,652,2139
78683266,96,354,2147
78683286,-39,180,1897
78683306,46,242,1698
78683327,181,380,1582
78683347,192,451,1541
78683367,146,435,1445
78683387,100,426,1232
78683407,122,503,1098
78683427,176,620,1025
78683447,233,728,997
78683468,254,790,1113
78683488,167,744,1332
78683508,106,655,1550
78683528,148,623,1726
78683548,170,600,1966
78683568,147,566,2126
78683588,144,504,2109
78683609,225,483,2073
78683629,190,434,2288
78683649,-22,414,2391
78683669,186,381,2075
78683689,447,522,2103
78683709,421,493,2703
78683729,117,245,2825
78683750,-79,125,2425
78683770,77,316,2071
78683790,458,497,2258
78683810,636,489,2743
78683830,474,336,2699
78683850,243,199,2377
78683870,133,197,2036
78683891,115,281,1735
78683911,116,357,1386
78683931,101,433,1055
78683951,104,490,822
78683971,107,578,757
78683991,113,687,891
78684011,118,729,1078
78684032,117,698,1255
78684052,144,648,1477
78684072,171,591,1760
78684092,118,508,2073
78684112,-13,440,2308
78684132,-142,404,2317
78684152,-100,473,2189
78684173,24,569,2258
78684193,-35,608,2476
78684213,-157,679,2191
78684233,96,693,1942
78684253,490,592,2538
78684273,438,542,3487
78684293,90,309,3501
78684313,-154,147,2346
78684334,-58,364,1631
78684354,179,607,1762
78684374,217,569,2230
78684394,83,281,2051
78684414,99,195,1721
78684434,167,241,1520
78684454,221,333,1562
78684475,153,382,1686
78684495,53,326,1471
78684515,57,332,1195
78684535,67,394,957
78684555,130,508,889
78684575,202,648,997
78684595,172,693,1214
78684616,98,607,1401
78684636,87,553,1525
78684656,146,576,1657
78684676,153,609,1867
78684696,47,589,2107
78684716,-17,500,2147
78684736,45,462,2203
78684757,40,499,2506
78684777,-23,471,2609
78684797,141,427,2335
78684817,351,485,2334
78684837,325,426,2730
78684857,13,171,2857
78684877,-274,-9,2516
78684898,-269,60,2114
78684918,57,170,2011
78684938,380,251,2444
78684958,400,264,2678
78684978,219,176,2336
78684998,103,101,1920
78685018,94,169,1743
78685039,80,289,1633
78685059,72,336,1432
78685079,63,390,1102
78685099,71,487,847
78685119,130,603,786
78685139,188,705,839
78685159,204,754,1113
78685180,185,705,1457
78685200,181,596,1744
78685220,159,514,2017
78685240,11,451,2320
78685260,-134,422,2419
78685280,-132,423,2200
78685300,53,591,2168
78685321,122,610,2356
78685341,-91,634,2474
78685361,-144,651,2132
78685381,177,603,2209
78685401,451,476,2890
78685421,275,455,3511
78685441,-1,212,2940
78685462,-180,206,1754
78685482,-82,412,1432
78685502,131,585,1772
78685522,127,513,2117
78685542,-2,321,1917
78685562,-4,267,1667
78685582,100,334,1603
78685603,187,417,1599
78685623,197,454,1557
78685643,120,420,1446
78685663,93,396,1235
78685683,132,463,1057
78685703,199,590,975
78685723,249,693,985
78685744,236,713,1207
78685764,187,641,1517
78685784,188,563,1741
78685804,192,532,1946
78685824,159,536,2102
78685844,115,510,2159
78685864,105,472,2118
78685885,64,445,2176
78685905,-43,449,2235
78685925,104,447,2170
78685945,284,465,2345
78685965,334,326,2823
78685985,20,10,3329
78686005,-322,-242,3188
78686026,-228,-98,2542
78686046,286,264,2176
78686066,590,521,2327
78686086,559,477,2196
78686106,387,315,1959
78686126,282,218,1764
78686146,181,250,1716
78686167,58,278,1675
78686187,-48,269,1428
78686207,-109,290,1124
78686227,-85,372,830
78686247,-32,518,741
78686267,31,670,772
78686287,100,767,997
78686308,115,725,1295
78686328,175,624,1611
78686348,47,531,2036
78686368,-120,403,2398
78686388,-242,332,2560
78686408,-209,354,2430
78686428,-78,433,2433
78686449,29,459,2670
78686469,-59,507,2654
78686489,-50,600,2228
78686509,229,624,2245
78686529,382,534,2892
78686549,247,400,3160
78686569,66,308,2661
78686590,11,362,1866
78686610,68,526,1540
78686630,151,606,1645
78686650,125,491,1919
78686670,30,299,1893
78686690,41,246,1696
78686710,147,320,1624
78686730,185,394,1703
78686751,99,390,1692
78686771,4,322,1515
78686791,-38,330,1342
78686811,14,393,1162
78686831,97,516,1069
78686851,161,638,1045
78686871,152,711,1098
78686892,64,695,1267
78686912,-3,636,1446
78686932,51,630,1636
78686952,127,679,1891
78686972,104,691,2076
78686992,115,621,2146
78687012,186,548,2153
78687033,147,448,2434
78687053,-184,310,2749
78687073,15,154,2315
78687093,353,373,2018
78687113,424,450,2759
78687133,218,60,3007
78687153,6,-166,2670
78687174,145,32,2102
78687194,584,285,1911
78687214,873,377,2304
78687234,741,259,2466
78687254,452,139,2189
78687274,290,135,1962
78687294,170,238,1924
78687315,86,334,1732
78687335,31,397,1362
78687355,6,458,1008
78687375,11,561,900
78687395,55,672,948
78687415,112,776,1092
78687435,131,811,1369
78687456,148,748,1596
78687476,165,678,1769
78687496,176,618,1986
78687516,121,566,2138
78687536,32,521,2165
78687556,-10,478,2156
78687576,20,470,2233
78687597,-47,516,2360
78687617,-148,608,2184
78687637,157,662,1966
78687657,589,642,2573
78687677,535,628,3461
78687697,96,358,3255
78687717,-203,167,2269
78687738,-219,352,1755
78687758,24,616,1980
78687778,159,581,2340
78687798,84,359,2141
78687818,40,270,1814
78687838,80,265,1638
78687858,116,342,1716
78687879,103,404,1743
78687899,46,355,1466
78687919,-5,341,1209
78687939,16,392,979
78687959,79,535,874
78687979,203,706,895
78687999,275,807,1076
78688020,200,757,1365
78688040,88,643,1460
78688060,29,578,1635
78688080,137,622,1873
78688100,166,658,1969
78688120,165,593,1974
78688140,197,525,1985
78688161,162,488,2124
78688181,-12,471,2273
78688201,177,435,2103
78688221,400,515,2197
78688241,401,420,2773
78688261,112,174,3005
78688281,-55,25,2807
78688302,87,164,2547
78688322,368,329,2556
78688342,503,341,2456
78688362,374,313,2250
78688382,235,293,2108
78688402,146,280,1918
78688422,72,295,1659
78688443,40,323,1359
78688463,53,392,1094
78688483,85,493,900
78688503,122,599,800
78688523,170,708,845
78688543,178,761,1074
78688563,160,685,1307
78688584,175,595,1530
78688604,208,561,1824
78688624,158,504,2184
78688644,-10,431,2448
78688664,-173,389,2321
78688684,-172,457,2048
78688704,-30,599,2163
78688725,17,633,2399
78688745,-148,752,2241
78688765,65,785,1776
78688785,458,645,2458
78688805,405,565,3517
78688825,119,291,3924
78688845,-171,-21,2661
78688866,-244,195,1721
78688886,-28,467,1453
78688906,194,612,1785
78688926,171,512,1999
78688946,36,287,1772
78688966,11,246,1639
78688986,51,340,1557
78689006,83,421,1483
78689027,72,438,1377
78689047,43,451,1310
78689067,24,496,1226
78689087,47,560,1171
78689107,112,641,1152
78689127,168,698,1288
78689147,159,698,1526
78689168,137,640,1666
78689188,161,608,1785
78689208,145,610,1925
78689228,67,590,1918
78689248,82,562,1839
78689268,179,558,2015
78689288,224,597,2306
78689309,350,622,2259
78689329,627,631,2123
78689349,792,553,2478
78689369,537,296,3134
78689389,1,-55,3280
78689409,-339,-265,2760
78689429,-320,-108,2230
78689450,26,158,2202
78689470,373,322,2402
78689490,445,343,2377
78689510,314,301,2157
78689530,177,262,1886
78689550,119,286,1582
78689570,109,376,1298
78689591,171,488,1092
78689611,270,622,868
78689631,292,756,738
78689651,261,857,792
78689671,198,878,917
78689691,197,830,1096
78689711,144,801,1268
78689732,95,768,1551
78689752,49,715,1854
78689772,-99,690,2020
78689792,-188,672,2095
78689812,-199,642,2063
78689832,-123,603,2227
78689852,-160,614,2548
78689873,-317,692,2393
78689893,-121,776,1941
78689913,172,707,2587
78689933,139,626,3177
78689953,-100,526,3081
78689973,-216,423,2049
78689993,-116,592,1827
78690014,91,688,2327
78690034,43,527,2446
78690054,-31,323,2051
78690074,64,289,1783
78690094,172,358,1752
78690114,195,461,1820
78690134,104,457,1750
78690155,-5,433,1496
78690175,-43,480,1178
78690195,-18,607,928
78690215,72,794,832
78690235,172,968,942
78690255,178,1010,1204
78690275,105,918,1424
78690296,72,777,1600
78690316,130,694,1875
78690336,157,689,2141
78690356,100,665,2066
78690376,104,615,1789
78690396,159,586,1872
78690416,28,566,2163
78690437,21,446,2117
78690457,372,380,1924
78690477,509,518,2246
78690497,378,386,2636
78690517,136,102,2884
78690537,30,-46,2808
78690557,271,160,2348
78690578,698,445,2335
78690598,793,515,2596
78690618,480,361,2447
78690638,205,237,2095
78690658,65,262,1785
78690678,69,335,1437
78690698,57,430,1142
78690719,79,541,936
78690739,72,623,818
78690759,31,696,791
78690779,-33,760,903
78690799,-78,793,1053
78690819,-67,794,1213
78690839,24,778,1463
78690860,70,757,1921
78690880,31,665,2333
78690900,-145,545,2569
78690920,-308,472,2530
78690940,-324,478,2297
78690960,-175,589,2265
78690980,-130,647,2520
78691001,-209,694,2492
78691021,6,714,2256
78691041,308,613,2535
78691061,331,524,3167
78691081,88,383,3153
78691101,-123,252,2321
78691121,-126,377,1560
78691142,50,578,1476
78691162,143,554,1775
78691182,114,346,1844
78691202,87,239,1710
78691222,68,253,1712
78691242,23,258,1751
78691262,0,278,1662
78691283,34,329,1440
78691303,84,408,1178
78691323,157,518,1000
78691343,239,630,916
78691363,341,756,1033
78691383,390,842,1315
78691403,307,821,1483
78691424,245,705,1610
78691444,270,644,1842
78691464,269,672,2168
78691484,149,629,2259
78691504,113,530,2063
78691524,195,552,2066
78691544,110,615,2280
78691564,133,548,2171
78691585,394,519,2063
78691605,440,504,2506
78691625,251,294,3015
78691645,-114,0,2987
78691665,-195,-31,2334
78691685,33,307,1970
78691705,534,463,2181
78691726,652,414,2820
78691746,448,245,2749
78691766,201,119,2206
78691786,113,173,1791
78691806,103,296,1498
78691826,128,409,1141
78691846,164,522,841
78691867,163,630,721
78691887,132,725,795
78691907,128,789,904
78691927,133,840,1033
78691947,146,818,1249
78691967,187,731,1572
78691987,207,649,1913
78692008,120,565,2258
78692028,-53,496,2398
78692048,-141,491,2167
78692068,-68,594,1957
78692088,-37,741,2158
78692108,-127,803,2149
78692128,90,725,2005
78692149,433,579,2594
78692169,381,509,3644
78692189,60,247,3912
78692209,-220,13,2935
78692229,-205,164,2162
78692249,43,456,1935
78692269,211,600,1954
78692290,186,495,1855
78692310,105,344,1639
78692330,47,290,1384
78692350,7,322,1289
78692370,36,389,1381
78692390,26,423,1430
78692410,-5,400,1303
78692431,-32,449,1129
78692451,0,534,930
78692471,74,686,880
78692491,153,792,998
78692511,189,741,1311
78692531,209,684,1485
78692551,155,655,1635
78692572,136,601,1862
78692592,101,554,2121
78692612,14,526,2152
78692632,7,455,2092
78692652,39,413,2174
78692672,-2,424,2377
78692692,16,452,2269
78692713,256,452,2073
78692733,382,448,2451
78692753,240,265,2974
78692773,-120,24,3099
78692793,-187,-24,2643
78692813,172,256,2154
78692833,669,571,2255
78692854,818,609,2556
78692874,674,417,2496
78692894,450,277,2208
78692914,286,239,2044
78692934,208,260,1964
78692954,163,298,1680
78692974,143,350,1261
78692995,170,430,871
78693015,205,568,614
78693035,245,742,533
78693055,285,868,589
78693075,267,927,834
78693095,214,844,1178
78693115,175,731,1447
78693136,120,665,1739
78693156,46,629,2091
78693176,39,589,2333
78693196,77,582,2491
78693216,98,539,2749
78693236,-85,544,3010
78693256,-103,572,2760
78693277,219,564,2654
78693297,471,538,3238
78693317,333,462,3465
78693337,117,310,2438
78693357,-31,353,1497
78693377,-9,544,1006
78693397,160,648,1279
78693418,232,571,1918
78693438,54,332,1971
78693458,-17,215,1784
78693478,23,244,1701
78693498,99,331,1767
78693518,114,375,1762
78693538,107,389,1580
78693559,115,411,1338
78693579,161,500,1209
78693599,203,615,1072
78693619,258,730,953
78693639,305,815,955
78693659,282,863,1172
78693679,211,813,1551
78693700,216,703,1798
78693720,207,643,2017
78693740,133,609,2264
78693760,75,539,2305
78693780,93,476,2199
78693800,105,437,2268
78693820,-39,420,2379
78693840,21,429,2120
78693861,349,516,2081
78693881,474,487,2677
78693901,229,210,3247
78693921,-71,-66,3112
78693941,-68,45,2522
78693961,271,368,2220
78693981,560,587,2320
78694002,547,546,2226
78694022,436,370,1993
78694042,348,268,1772
78694062,287,292,1651
78694082,233,349,1536
78694102,176,375,1334
78694122,136,372,1050
78694143,112,438,800
78694163,95,596,790
78694183,113,731,870
78694203,124,780,1060
78694223,118,723,1280
78694243,59,665,1445
78694263,20,588,1759
78694284,-23,579,2065
78694304,-137,559,2196
78694324,-228,503,2170
78694344,-212,502,2180
78694364,-134,529,2452
78694384,-242,576,2670
78694404,-119,683,2144
78694425,322,748,2208
78694445,535,682,3222
78694465,304,554,3785
78694485,-46,305,2936
78694505,-183,330,1856
78694525,-25,564,1793
78694545,163,640,2222
78694566,130,449,2192
78694586,13,303,1766
78694606,11,334,1474
78694626,64,411,1260
78694646,73,475,1304
78694666,-1,470,1298
78694686,-77,431,1084
78694707,-81,475,862
78694727,-4,620,796
78694747,100,772,900
78694767,170,816,1130
78694787,211,741,1448
78694807,221,636,1876
78694827,127,510,2243
78694848,-42,374,2341
78694868,-72,312,2023
78694888,83,413,1927
78694908,277,497,2163
78694928,92,455,2286
78694948,-30,421,2004
78694968,309,396,1951
78694989,667,467,2418
78695009,561,287,3110
78695029,26,26,3369
78695049,-138,-156,2951
78695069,-5,35,2547
78695089,406,315,2370
78695109,611,404,2298
78695130,460,317,2403
78695150,237,242,2234
78695170,105,238,1823
78695190,84,281,1325
78695210,116,395,960
78695230,168,521,812
78695250,204,629,840
78695271,226,676,839
78695291,217,727,926
78695311,188,733,1156
78695331,156,662,1393
78695351,144,576,1550
78695371,115,545,1794
78695391,21,592,2048
78695412,-36,616,2143
78695432,-102,551,2082
78695452,-169,435,2385
78695472,-298,399,2567
78695492,-461,474,2025
78695512,-321,405,1876
78695532,31,255,2884
78695553,125,146,3771
78695573,-152,22,3154
78695593,-243,114,2085
78695613,-31,409,1675
78695633,354,722,1883
78695653,614,807,2162
78695673,510,651,2108
78695694,259,467,1892
78695714,142,393,1738
78695734,90,425,1570
78695754,112,509,1469
78695774,160,546,1365
78695794,193,574,1282
78695814,222,631,1219
78695835,214,660,1192
78695855,229,660,1331
78695875,214,606,1552
78695895,166,532,1718
78695915,120,454,1871
78695935,129,406,1925
78695955,192,355,1810
78695976,275,352,2028
78695996,282,276,2220
78696016,-63,90,2153
78696036,-352,29,2139
78696056,-248,-10,2534
78696076,-8,-66,3060
78696096,-36,-276,3721
78696117,-478,-429,3544
78696137,-462,-265,2751
78696157,80,133,1988
78696177,675,527,1485
78696197,1037,814,1632
78696217,998,860,1962
78696237,469,601,1873
78696257,62,286,1533
78696278,-79,222,1221
78696298,-43,336,990
78696318,68,487,935
78696338,127,605,926
78696358,114,641,948
78696378,59,591,1109
78696398,-6,502,1367
78696419,-21,454,1617
78696439,4,424,1916
78696459,-49,388,2128
78696479,-164,376,2104
78696499,-200,376,2060
78696519,-114,388,2215
78696539,-48,394,2462
78696560,-169,480,2579
78696580,-166,623,2282
78696600,102,517,2310
78696620,288,287,2882
78696640,70,79,3619
78696660,-306,-149,3272
78696680,-479,-121,2303
78696701,-317,115,2016
78696721,20,291,2374
78696741,148,288,2340
78696761,67,233,1908
78696781,63,242,1498
78696801,100,359,1260
78696821,123,470,1281
78696842,99,476,1258
78696862,13,435,1216
78696882,-15,427,1118
78696902,19,485,947
78696922,102,623,885
78696942,155,738,1067
78696962,153,720,1312
78696983,107,601,1621
78697003,96,499,1883
78697023,67,447,2133
78697043,37,425,2242
78697063,81,380,2114
78697083,225,404,1990
78697103,246,413,2152
78697124,-52,391,2247
78697144,-31,304,2033
78697164,365,301,2281
78697184,497,291,2936
78697204,221,-22,3477
78697224,-241,-323,3386
78697244,-313,-303,2865
78697265,-12,18,2461
78697285,348,233,2294
78697305,432,275,2240
78697325,349,282,2194
78697345,207,268,1958
78697365,102,241,1572
78697385,74,263,1234
78697406,105,345,982
78697426,147,453,808
78697446,139,562,758
78697466,109,638,798
78697486,77,693,885
78697506,92,721,1019
78697526,147,736,1285
78697547,175,700,1611
78697567,105,610,1942
78697587,-75,530,2248
78697607,-192,465,2326
78697627,-194,462,2289
78697647,-55,539,2354
78697667,-2,564,2510
78697688,-126,737,2173
78697708,21,776,1749
78697728,325,590,2512
78697748,224,442,3532
78697768,-113,189,3612
78697788,-289,22,2478
78697808,-222,294,1828
78697829,-20,501,1971
78697849,12,461,2150
78697869,-19,217,2039
78697889,-25,185,1883
78697909,20,224,1687
78697929,110,283,1532
78697949,111,383,1472
78697970,55,406,1351
78697990,25,387,1132
78698010,45,425,1029
78698030,98,548,1058
78698050,135,664,1109
78698070,142,695,1188
78698090,112,688,1371
78698111,138,649,1523
78698131,188,617,1732
78698151,156,574,2044
78698171,74,515,2154
78698191,52,466,2048
78698211,51,467,2070
78698231,70,476,2214
78698252,175,454,2237
78698272,310,376,2316
78698292,307,236,2765
78698312,30,5,3297
78698332,-309,-229,3264
78698352,-350,-148,2646
78698372,-48,176,2169
78698393,305,413,2000
78698413,504,439,2072
78698433,523,379,2187
78698453,420,319,2031
78698473,291,265,1881
78698493,184,248,1766
78698513,112,275,1535
78698533,94,328,1183
78698554,138,409,884
78698574,188,526,810
78698594,214,639,1009
78698614,223,701,1197
78698634,220,670,1316
78698654,237,588,1525
78698674,278,560,1904
78698695,153,482,2271
78698715,-37,371,2367
78698735,-69,389,2124
78698755,-22,569,1866
78698775,0,684,1955
78698795,-26,664,2230
78698815,-192,687,2075
78698836,21,689,1863
78698856,299,637,2469
78698876,306,527,3229
78698896,33,351,3454
78698916,-261,122,2766
78698936,-327,220,2219
78698956,-175,386,2257
78698977,-61,383,2247
78698997,-47,269,1959
78699017,-14,224,1661
78699037,35,264,1491
78699057,66,331,1506
78699077,58,330,1507
78699097,9,304,1428
78699118,-54,333,1389
78699138,-115,377,1281
78699158,-167,417,1183
78699178,-159,477,1246
78699198,-94,575,1426
78699218,-28,646,1560
78699238,17,624,1550
78699259,18,559,1604
78699279,-71,484,1889
78699299,-171,411,2193
78699319,-119,343,2186
78699339,41,359,2021
78699359,53,367,2248
78699379,-190,244,2478
78699400,-179,158,2160
78699420,218,311,1915
78699440,344,433,2382
78699460,45,156,2813
78699480,-249,-56,2630
78699500,-156,11,2250
78699520,81,190,2485
78699541,304,184,2571
78699561,313,103,2389
78699581,244,29,2177
78699601,169,26,2059
78699621,78,84,2050
78699641,5,131,1882
78699661,-12,198,1538
78699682,31,277,1125
78699702,94,438,837
78699722,140,602,769
78699742,164,719,902
78699762,172,760,1164
78699782,145,687,1308
78699802,117,622,1465
78699823,120,554,1734
78699843,27,519,1987
78699863,-86,489,2190
78699883,-127,468,2235
78699903,-151,511,2284
78699923,-177,663,2223
78699943,-67,809,1855
78699964,252,738,2195
78699984,342,584,3369
78700004,74,308,3940
78700024,-156,-4,3346
78700044,-163,23,2446
78700064,11,308,2001
78700084,139,454,1852
78700105,157,415,1780
78700125,117,302,1651
78700145,44,206,1545
78700165,-80,162,1710
78700185,-197,124,1950
78700205,-179,114,1755
78700225,-81,229,1441
78700246,27,345,1191
78700266,72,468,1048
78700286,86,576,1016
78700306,115,632,1068
78700326,128,668,1110
78700346,144,711,1210
78700366,180,741,1418
78700387,168,706,1698
78700407,92,638,1966
78700427,0,567,2219
78700447,15,511,2242
78700467,145,487,2243
78700487,226,483,2345
78700507,26,464,2357
78700527,136,488,1933
78700548,450,582,1973
78700568,500,520,2692
78700588,148,156,3083
78700608,-189,-87,3034
78700628,-129,-34,2520
78700648,98,308,2242
78700668,427,455,2256
78700689,512,400,2196
78700709,457,278,2098
78700729,305,219,2050
78700749,159,165,1941
78700769,86,146,1659
78700789,95,197,1278
78700809,132,295,959
78700830,161,433,773
78700850,202,583,686
78700870,248,668,750
78700890,260,684,1026
78700910,204,637,1312
78700930,107,555,1537
78700950,-12,501,1808
78700971,-127,510,2002
78700991,-216,495,2079
78701011,-263,477,2174
78701031,-280,457,2315
78701051,-389,459,2459
78701071,-443,656,2116
78701091,-238,644,2028
78701112,-3,435,2818
78701132,-147,290,3760
78701152,-475,61,3544
78701172,-559,32,2690
78701192,-280,226,2367
78701212,18,404,2484
78701232,98,327,2495
78701253,36,200,2414
78701273,-56,195,2227
78701293,-72,211,1936
78701313,-43,222,1534
78701333,8,281,1206
78701353,74,385,1006
78701373,109,462,949
78701394,102,552,910
78701414,95,610,791
78701434,162,683,862
78701454,181,764,1057
78701474,181,732,1339
78701494,195,613,1610
78701514,191,520,1878
78701535,88,450,2157
78701555,81,381,2068
78701575,152,380,1939
78701595,90,375,2199
78701615,-199,307,2341
78701635,-56,247,2069
78701655,356,282,2392
78701676,234,258,3226
78701696,-223,8,3503
78701716,-363,-110,3019
78701736,-24,157,2586
78701756,424,464,2620
78701776,580,410,2529
78701796,436,245,2241
78701817,288,249,1980
78701837,218,305,1635
78701857,199,335,1317
78701877,209,370,1101
78701897,196,426,990
78701917,151,481,946
78701937,109,514,890
78701958,117,552,856
